[
  {
    "rt": 4119,
    "url": "src/html/consent.html",
    "experiment_phase": "consent",
    "refresh_count": 10,
    "trial_type": "render-mustache-template",
    "trial_index": 0,
    "time_elapsed": 4241,
    "experiment_name": "example_experiment",
    "assignmentId": "test",
    "hitId": "test",
    "workerId": "test",
    "turkSubmitTo": "",
    "previewMode": false,
    "outsideTurk": false,
    "platform": "turk",
    "start_time": "2026-04-24T14:02:13Z",
    "condition": "emotional",
    "end_time": "2026-04-24T14:04:40Z",
    "total_time": 146351,
    "ip_address": "\"127.0.0.1\"",
    "version_date": "2023-10-21",
    "anon_id": "u721kqof2fdwpda",
    "debug_mode": false,
    "completion_code": "2782603528-exa-7932120769-mple",
    "seed": 1777039333726,
    "redirect_url": null,
    "worker_info": {
      "assignmentId": "test",
      "hitId": "test",
      "workerId": "test",
      "turkSubmitTo": "",
      "previewMode": false,
      "outsideTurk": false,
      "platform": "turk"
    },
    "browser_events": []
  },
  {
    "success": true,
    "trial_type": "fullscreen",
    "trial_index": 1,
    "time_elapsed": 5346,
    "screen_width": 1440,
    "screen_height": 900,
    "window_width": 1274,
    "window_height": 834,
    "experiment_name": "example_experiment",
    "assignmentId": "test",
    "hitId": "test",
    "workerId": "test",
    "turkSubmitTo": "",
    "previewMode": false,
    "outsideTurk": false,
    "platform": "turk",
    "start_time": "2026-04-24T14:02:13Z",
    "condition": "emotional",
    "end_time": "2026-04-24T14:04:40Z",
    "total_time": 146351,
    "ip_address": "\"127.0.0.1\"",
    "version_date": "2023-10-21",
    "anon_id": "u721kqof2fdwpda",
    "debug_mode": false,
    "refresh_count": 10,
    "completion_code": "2782603528-exa-7932120769-mple",
    "seed": 1777039333726,
    "redirect_url": null,
    "worker_info": {
      "assignmentId": "test",
      "hitId": "test",
      "workerId": "test",
      "turkSubmitTo": "",
      "previewMode": false,
      "outsideTurk": false,
      "platform": "turk"
    },
    "browser_events": [
      {
        "event": "fullscreenenter",
        "time": 5266
      }
    ]
  },
  {
    "rt": 5959,
    "url": "src/html/attrition.html",
    "form_name": "attritionForm",
    "form_id": "#attritionForm",
    "experiment_phase": "attrition",
    "trial_type": "render-mustache-template",
    "trial_index": 2,
    "time_elapsed": 11320,
    "instructions_viewed_count": 7,
    "experiment_name": "example_experiment",
    "assignmentId": "test",
    "hitId": "test",
    "workerId": "test",
    "turkSubmitTo": "",
    "previewMode": false,
    "outsideTurk": false,
    "platform": "turk",
    "start_time": "2026-04-24T14:02:13Z",
    "condition": "emotional",
    "end_time": "2026-04-24T14:04:40Z",
    "total_time": 146351,
    "ip_address": "\"127.0.0.1\"",
    "version_date": "2023-10-21",
    "anon_id": "u721kqof2fdwpda",
    "debug_mode": false,
    "refresh_count": 10,
    "completion_code": "2782603528-exa-7932120769-mple",
    "seed": 1777039333726,
    "redirect_url": null,
    "worker_info": {
      "assignmentId": "test",
      "hitId": "test",
      "workerId": "test",
      "turkSubmitTo": "",
      "previewMode": false,
      "outsideTurk": false,
      "platform": "turk"
    },
    "browser_events": [
      {
        "event": "fullscreenexit",
        "time": 7979
      }
    ]
  },
  {
    "view_history": [
      {
        "page_index": 0,
        "viewing_time": 1144.6999999997206
      }
    ],
    "rt": 1145.7999999998137,
    "trial_type": "instructions",
    "trial_index": 3,
    "time_elapsed": 12570,
    "experiment_name": "example_experiment",
    "assignmentId": "test",
    "hitId": "test",
    "workerId": "test",
    "turkSubmitTo": "",
    "previewMode": false,
    "outsideTurk": false,
    "platform": "turk",
    "start_time": "2026-04-24T14:02:13Z",
    "condition": "emotional",
    "end_time": "2026-04-24T14:04:40Z",
    "total_time": 146351,
    "ip_address": "\"127.0.0.1\"",
    "version_date": "2023-10-21",
    "anon_id": "u721kqof2fdwpda",
    "debug_mode": false,
    "refresh_count": 10,
    "completion_code": "2782603528-exa-7932120769-mple",
    "seed": 1777039333726,
    "redirect_url": null,
    "worker_info": {
      "assignmentId": "test",
      "hitId": "test",
      "workerId": "test",
      "turkSubmitTo": "",
      "previewMode": false,
      "outsideTurk": false,
      "platform": "turk"
    },
    "browser_events": []
  },
  {
    "rt": 9880,
    "response": 47,
    "initial_response": 47,
    "initial_response_time": 984,
    "all_responses": [
      47
    ],
    "all_response_times": [
      984
    ],
    "stimulus": "src/images/jpg/1.jpg",
    "condition": "emotional",
    "experiment_phase": "main",
    "trial_type": "image-slider-response",
    "trial_index": 4,
    "time_elapsed": 22560,
    "experiment_name": "example_experiment",
    "assignmentId": "test",
    "hitId": "test",
    "workerId": "test",
    "turkSubmitTo": "",
    "previewMode": false,
    "outsideTurk": false,
    "platform": "turk",
    "start_time": "2026-04-24T14:02:13Z",
    "end_time": "2026-04-24T14:04:40Z",
    "total_time": 146351,
    "ip_address": "\"127.0.0.1\"",
    "version_date": "2023-10-21",
    "anon_id": "u721kqof2fdwpda",
    "debug_mode": false,
    "refresh_count": 10,
    "completion_code": "2782603528-exa-7932120769-mple",
    "seed": 1777039333726,
    "redirect_url": null,
    "worker_info": {
      "assignmentId": "test",
      "hitId": "test",
      "workerId": "test",
      "turkSubmitTo": "",
      "previewMode": false,
      "outsideTurk": false,
      "platform": "turk"
    },
    "browser_events": []
  },
  {
    "rt": 1701,
    "response": 48,
    "initial_response": 48,
    "initial_response_time": 1158,
    "all_responses": [
      48
    ],
    "all_response_times": [
      1158
    ],
    "stimulus": "src/images/jpg/2.jpg",
    "condition": "emotional",
    "experiment_phase": "main",
    "trial_type": "image-slider-response",
    "trial_index": 5,
    "time_elapsed": 24364,
    "experiment_name": "example_experiment",
    "assignmentId": "test",
    "hitId": "test",
    "workerId": "test",
    "turkSubmitTo": "",
    "previewMode": false,
    "outsideTurk": false,
    "platform": "turk",
    "start_time": "2026-04-24T14:02:13Z",
    "end_time": "2026-04-24T14:04:40Z",
    "total_time": 146351,
    "ip_address": "\"127.0.0.1\"",
    "version_date": "2023-10-21",
    "anon_id": "u721kqof2fdwpda",
    "debug_mode": false,
    "refresh_count": 10,
    "completion_code": "2782603528-exa-7932120769-mple",
    "seed": 1777039333726,
    "redirect_url": null,
    "worker_info": {
      "assignmentId": "test",
      "hitId": "test",
      "workerId": "test",
      "turkSubmitTo": "",
      "previewMode": false,
      "outsideTurk": false,
      "platform": "turk"
    },
    "browser_events": []
  },
  {
    "rt": 1680,
    "response": 51,
    "initial_response": 51,
    "initial_response_time": 1042,
    "all_responses": [
      51
    ],
    "all_response_times": [
      1042
    ],
    "stimulus": "src/images/jpg/3.jpg",
    "condition": "emotional",
    "experiment_phase": "main",
    "trial_type": "image-slider-response",
    "trial_index": 6,
    "time_elapsed": 26148,
    "experiment_name": "example_experiment",
    "assignmentId": "test",
    "hitId": "test",
    "workerId": "test",
    "turkSubmitTo": "",
    "previewMode": false,
    "outsideTurk": false,
    "platform": "turk",
    "start_time": "2026-04-24T14:02:13Z",
    "end_time": "2026-04-24T14:04:40Z",
    "total_time": 146351,
    "ip_address": "\"127.0.0.1\"",
    "version_date": "2023-10-21",
    "anon_id": "u721kqof2fdwpda",
    "debug_mode": false,
    "refresh_count": 10,
    "completion_code": "2782603528-exa-7932120769-mple",
    "seed": 1777039333726,
    "redirect_url": null,
    "worker_info": {
      "assignmentId": "test",
      "hitId": "test",
      "workerId": "test",
      "turkSubmitTo": "",
      "previewMode": false,
      "outsideTurk": false,
      "platform": "turk"
    },
    "browser_events": []
  },
  {
    "rt": 1668,
    "response": 50,
    "initial_response": 50,
    "initial_response_time": 1015,
    "all_responses": [
      50
    ],
    "all_response_times": [
      1015
    ],
    "stimulus": "src/images/jpg/4.jpg",
    "condition": "emotional",
    "experiment_phase": "main",
    "trial_type": "image-slider-response",
    "trial_index": 7,
    "time_elapsed": 27920,
    "experiment_name": "example_experiment",
    "assignmentId": "test",
    "hitId": "test",
    "workerId": "test",
    "turkSubmitTo": "",
    "previewMode": false,
    "outsideTurk": false,
    "platform": "turk",
    "start_time": "2026-04-24T14:02:13Z",
    "end_time": "2026-04-24T14:04:40Z",
    "total_time": 146351,
    "ip_address": "\"127.0.0.1\"",
    "version_date": "2023-10-21",
    "anon_id": "u721kqof2fdwpda",
    "debug_mode": false,
    "refresh_count": 10,
    "completion_code": "2782603528-exa-7932120769-mple",
    "seed": 1777039333726,
    "redirect_url": null,
    "worker_info": {
      "assignmentId": "test",
      "hitId": "test",
      "workerId": "test",
      "turkSubmitTo": "",
      "previewMode": false,
      "outsideTurk": false,
      "platform": "turk"
    },
    "browser_events": []
  },
  {
    "rt": 1580,
    "response": 49,
    "initial_response": 49,
    "initial_response_time": 1094,
    "all_responses": [
      49
    ],
    "all_response_times": [
      1094
    ],
    "stimulus": "src/images/jpg/5.jpg",
    "condition": "emotional",
    "experiment_phase": "main",
    "trial_type": "image-slider-response",
    "trial_index": 8,
    "time_elapsed": 29604,
    "experiment_name": "example_experiment",
    "assignmentId": "test",
    "hitId": "test",
    "workerId": "test",
    "turkSubmitTo": "",
    "previewMode": false,
    "outsideTurk": false,
    "platform": "turk",
    "start_time": "2026-04-24T14:02:13Z",
    "end_time": "2026-04-24T14:04:40Z",
    "total_time": 146351,
    "ip_address": "\"127.0.0.1\"",
    "version_date": "2023-10-21",
    "anon_id": "u721kqof2fdwpda",
    "debug_mode": false,
    "refresh_count": 10,
    "completion_code": "2782603528-exa-7932120769-mple",
    "seed": 1777039333726,
    "redirect_url": null,
    "worker_info": {
      "assignmentId": "test",
      "hitId": "test",
      "workerId": "test",
      "turkSubmitTo": "",
      "previewMode": false,
      "outsideTurk": false,
      "platform": "turk"
    },
    "browser_events": []
  },
  {
    "rt": 1607,
    "response": 49,
    "initial_response": 49,
    "initial_response_time": 1084,
    "all_responses": [
      49
    ],
    "all_response_times": [
      1084
    ],
    "stimulus": "src/images/jpg/6.jpg",
    "condition": "emotional",
    "experiment_phase": "main",
    "trial_type": "image-slider-response",
    "trial_index": 9,
    "time_elapsed": 31314,
    "experiment_name": "example_experiment",
    "assignmentId": "test",
    "hitId": "test",
    "workerId": "test",
    "turkSubmitTo": "",
    "previewMode": false,
    "outsideTurk": false,
    "platform": "turk",
    "start_time": "2026-04-24T14:02:13Z",
    "end_time": "2026-04-24T14:04:40Z",
    "total_time": 146351,
    "ip_address": "\"127.0.0.1\"",
    "version_date": "2023-10-21",
    "anon_id": "u721kqof2fdwpda",
    "debug_mode": false,
    "refresh_count": 10,
    "completion_code": "2782603528-exa-7932120769-mple",
    "seed": 1777039333726,
    "redirect_url": null,
    "worker_info": {
      "assignmentId": "test",
      "hitId": "test",
      "workerId": "test",
      "turkSubmitTo": "",
      "previewMode": false,
      "outsideTurk": false,
      "platform": "turk"
    },
    "browser_events": []
  },
  {
    "rt": 1477,
    "response": 50,
    "initial_response": 50,
    "initial_response_time": 1009,
    "all_responses": [
      50
    ],
    "all_response_times": [
      1009
    ],
    "stimulus": "src/images/jpg/7.jpg",
    "condition": "emotional",
    "experiment_phase": "main",
    "trial_type": "image-slider-response",
    "trial_index": 10,
    "time_elapsed": 32895,
    "experiment_name": "example_experiment",
    "assignmentId": "test",
    "hitId": "test",
    "workerId": "test",
    "turkSubmitTo": "",
    "previewMode": false,
    "outsideTurk": false,
    "platform": "turk",
    "start_time": "2026-04-24T14:02:13Z",
    "end_time": "2026-04-24T14:04:40Z",
    "total_time": 146351,
    "ip_address": "\"127.0.0.1\"",
    "version_date": "2023-10-21",
    "anon_id": "u721kqof2fdwpda",
    "debug_mode": false,
    "refresh_count": 10,
    "completion_code": "2782603528-exa-7932120769-mple",
    "seed": 1777039333726,
    "redirect_url": null,
    "worker_info": {
      "assignmentId": "test",
      "hitId": "test",
      "workerId": "test",
      "turkSubmitTo": "",
      "previewMode": false,
      "outsideTurk": false,
      "platform": "turk"
    },
    "browser_events": []
  },
  {
    "rt": 1604,
    "response": 48,
    "initial_response": 48,
    "initial_response_time": 1113,
    "all_responses": [
      48
    ],
    "all_response_times": [
      1113
    ],
    "stimulus": "src/images/jpg/8.jpg",
    "condition": "emotional",
    "experiment_phase": "main",
    "trial_type": "image-slider-response",
    "trial_index": 11,
    "time_elapsed": 34602,
    "experiment_name": "example_experiment",
    "assignmentId": "test",
    "hitId": "test",
    "workerId": "test",
    "turkSubmitTo": "",
    "previewMode": false,
    "outsideTurk": false,
    "platform": "turk",
    "start_time": "2026-04-24T14:02:13Z",
    "end_time": "2026-04-24T14:04:40Z",
    "total_time": 146351,
    "ip_address": "\"127.0.0.1\"",
    "version_date": "2023-10-21",
    "anon_id": "u721kqof2fdwpda",
    "debug_mode": false,
    "refresh_count": 10,
    "completion_code": "2782603528-exa-7932120769-mple",
    "seed": 1777039333726,
    "redirect_url": null,
    "worker_info": {
      "assignmentId": "test",
      "hitId": "test",
      "workerId": "test",
      "turkSubmitTo": "",
      "previewMode": false,
      "outsideTurk": false,
      "platform": "turk"
    },
    "browser_events": []
  },
  {
    "rt": 1544,
    "response": 52,
    "initial_response": 52,
    "initial_response_time": 1063,
    "all_responses": [
      52
    ],
    "all_response_times": [
      1063
    ],
    "stimulus": "src/images/jpg/9.jpg",
    "condition": "emotional",
    "experiment_phase": "main",
    "trial_type": "image-slider-response",
    "trial_index": 12,
    "time_elapsed": 36250,
    "experiment_name": "example_experiment",
    "assignmentId": "test",
    "hitId": "test",
    "workerId": "test",
    "turkSubmitTo": "",
    "previewMode": false,
    "outsideTurk": false,
    "platform": "turk",
    "start_time": "2026-04-24T14:02:13Z",
    "end_time": "2026-04-24T14:04:40Z",
    "total_time": 146351,
    "ip_address": "\"127.0.0.1\"",
    "version_date": "2023-10-21",
    "anon_id": "u721kqof2fdwpda",
    "debug_mode": false,
    "refresh_count": 10,
    "completion_code": "2782603528-exa-7932120769-mple",
    "seed": 1777039333726,
    "redirect_url": null,
    "worker_info": {
      "assignmentId": "test",
      "hitId": "test",
      "workerId": "test",
      "turkSubmitTo": "",
      "previewMode": false,
      "outsideTurk": false,
      "platform": "turk"
    },
    "browser_events": []
  },
  {
    "rt": 1511,
    "response": 53,
    "initial_response": 53,
    "initial_response_time": 1042,
    "all_responses": [
      53
    ],
    "all_response_times": [
      1042
    ],
    "stimulus": "src/images/jpg/10.jpg",
    "condition": "emotional",
    "experiment_phase": "main",
    "trial_type": "image-slider-response",
    "trial_index": 13,
    "time_elapsed": 37863,
    "experiment_name": "example_experiment",
    "assignmentId": "test",
    "hitId": "test",
    "workerId": "test",
    "turkSubmitTo": "",
    "previewMode": false,
    "outsideTurk": false,
    "platform": "turk",
    "start_time": "2026-04-24T14:02:13Z",
    "end_time": "2026-04-24T14:04:40Z",
    "total_time": 146351,
    "ip_address": "\"127.0.0.1\"",
    "version_date": "2023-10-21",
    "anon_id": "u721kqof2fdwpda",
    "debug_mode": false,
    "refresh_count": 10,
    "completion_code": "2782603528-exa-7932120769-mple",
    "seed": 1777039333726,
    "redirect_url": null,
    "worker_info": {
      "assignmentId": "test",
      "hitId": "test",
      "workerId": "test",
      "turkSubmitTo": "",
      "previewMode": false,
      "outsideTurk": false,
      "platform": "turk"
    },
    "browser_events": []
  },
  {
    "rt": 18814,
    "url": "src/html/survey.html",
    "form_name": "surveyForm",
    "form_id": "#surveyForm",
    "experiment_phase": "survey",
    "form_data": "{\"estimatedPerformance\":\"100\",\"strategies\":\"nooooo\",\"interruption\":\"No, I did not interrupt the task.\",\"participatedBefore\":\"No\",\"issues\":\"no\",\"seriousness\":\"97\",\"comments\":\"\",\"age\":\"20\",\"race\":[\"East Asian\"],\"sex\":\"Male\",\"gender\":\"male\"}",
    "trial_type": "render-mustache-template",
    "trial_index": 14,
    "time_elapsed": 56904,
    "experiment_name": "example_experiment",
    "assignmentId": "test",
    "hitId": "test",
    "workerId": "test",
    "turkSubmitTo": "",
    "previewMode": false,
    "outsideTurk": false,
    "platform": "turk",
    "start_time": "2026-04-24T14:02:13Z",
    "condition": "emotional",
    "end_time": "2026-04-24T14:04:40Z",
    "total_time": 146351,
    "ip_address": "\"127.0.0.1\"",
    "version_date": "2023-10-21",
    "anon_id": "u721kqof2fdwpda",
    "debug_mode": false,
    "refresh_count": 10,
    "completion_code": "2782603528-exa-7932120769-mple",
    "seed": 1777039333726,
    "redirect_url": null,
    "worker_info": {
      "assignmentId": "test",
      "hitId": "test",
      "workerId": "test",
      "turkSubmitTo": "",
      "previewMode": false,
      "outsideTurk": false,
      "platform": "turk"
    },
    "browser_events": []
  },
  {
    "rt": 32200,
    "url": "src/html/survey3.html",
    "form_name": "survey3Form",
    "form_id": "#survey3Form",
    "experiment_phase": "survey",
    "form_data": "{\"Q1\":\"Very Hard\",\"Q2\":\"Very Hard\",\"Q3\":\"Very Hard\",\"Q4\":\"Very Hard\",\"Q5\":\"Very Hard\",\"Q6\":\"Very Hard\",\"Q7\":\"Very Hard\",\"Q8\":\"Very Hard\",\"Q9\":\"Very Hard\",\"Q10\":\"Very Hard\",\"Q11\":\"Very Hard\",\"Q12\":\"Very Hard\",\"Q13\":\"Very Hard\",\"Q14\":\"Very Hard\",\"Q15\":\"Very Hard\",\"Q16\":\"Very Hard\",\"Q17\":\"Very Hard\",\"Q18\":\"Very Hard\",\"Q19\":\"Very Hard\",\"Q20\":\"Very Hard\",\"Q21\":\"Very Hard\",\"Q22\":\"Very Hard\",\"Q23\":\"Very Hard\",\"Q24\":\"Very Hard\",\"Q25\":\"Very Hard\",\"Q26\":\"Very Hard\",\"Q27\":\"Very Hard\",\"Q28\":\"Very Hard\",\"Q29\":\"Very Hard\",\"Q30\":\"Very Hard\",\"Q31\":\"Very Hard\",\"Q32\":\"Very Hard\",\"Q33\":\"Very Hard\"}",
    "trial_type": "render-mustache-template",
    "trial_index": 15,
    "time_elapsed": 89248,
    "experiment_name": "example_experiment",
    "assignmentId": "test",
    "hitId": "test",
    "workerId": "test",
    "turkSubmitTo": "",
    "previewMode": false,
    "outsideTurk": false,
    "platform": "turk",
    "start_time": "2026-04-24T14:02:13Z",
    "condition": "emotional",
    "end_time": "2026-04-24T14:04:40Z",
    "total_time": 146351,
    "ip_address": "\"127.0.0.1\"",
    "version_date": "2023-10-21",
    "anon_id": "u721kqof2fdwpda",
    "debug_mode": false,
    "refresh_count": 10,
    "completion_code": "2782603528-exa-7932120769-mple",
    "seed": 1777039333726,
    "redirect_url": null,
    "worker_info": {
      "assignmentId": "test",
      "hitId": "test",
      "workerId": "test",
      "turkSubmitTo": "",
      "previewMode": false,
      "outsideTurk": false,
      "platform": "turk"
    },
    "browser_events": [
      {
        "event": "blur",
        "time": 61164
      },
      {
        "event": "focus",
        "time": 64004
      }
    ]
  },
  {
    "rt": 16662,
    "url": "src/html/survey4.html",
    "form_name": "survey4Form",
    "form_id": "#survey4Form",
    "experiment_phase": "survey",
    "form_data": "{\"Q1\":\"Completely Disagree (1)\",\"Q2\":\"Completely Disagree (1)\",\"Q3\":\"Completely Disagree (1)\",\"Q4\":\"Completely Disagree (1)\",\"Q5\":\"Completely Disagree (1)\",\"Q6\":\"Completely Disagree (1)\",\"Q7\":\"Completely Disagree (1)\",\"Q8\":\"Completely Disagree (1)\",\"Q9\":\"Completely Disagree (1)\",\"Q10\":\"Completely Disagree (1)\"}",
    "trial_type": "render-mustache-template",
    "trial_index": 16,
    "time_elapsed": 106142,
    "experiment_name": "example_experiment",
    "assignmentId": "test",
    "hitId": "test",
    "workerId": "test",
    "turkSubmitTo": "",
    "previewMode": false,
    "outsideTurk": false,
    "platform": "turk",
    "start_time": "2026-04-24T14:02:13Z",
    "condition": "emotional",
    "end_time": "2026-04-24T14:04:40Z",
    "total_time": 146351,
    "ip_address": "\"127.0.0.1\"",
    "version_date": "2023-10-21",
    "anon_id": "u721kqof2fdwpda",
    "debug_mode": false,
    "refresh_count": 10,
    "completion_code": "2782603528-exa-7932120769-mple",
    "seed": 1777039333726,
    "redirect_url": null,
    "worker_info": {
      "assignmentId": "test",
      "hitId": "test",
      "workerId": "test",
      "turkSubmitTo": "",
      "previewMode": false,
      "outsideTurk": false,
      "platform": "turk"
    },
    "browser_events": []
  },
  {
    "rt": 25918,
    "url": "src/html/survey5.html",
    "form_name": "survey5Form",
    "form_id": "#survey5Form",
    "experiment_phase": "survey",
    "form_data": "{\"Q1\":\"Strongly Disagree\",\"Q2\":\"Strongly Disagree\",\"Q3\":\"Strongly Disagree\",\"Q4\":\"Strongly Disagree\",\"Q5\":\"Strongly Disagree\",\"Q6\":\"Strongly Disagree\",\"Q7\":\"Strongly Disagree\",\"Q8\":\"Strongly Disagree\",\"Q9\":\"Strongly Disagree\",\"Q10\":\"Strongly Disagree\",\"Q11\":\"Strongly Disagree\"}",
    "trial_type": "render-mustache-template",
    "trial_index": 17,
    "time_elapsed": 132204,
    "experiment_name": "example_experiment",
    "assignmentId": "test",
    "hitId": "test",
    "workerId": "test",
    "turkSubmitTo": "",
    "previewMode": false,
    "outsideTurk": false,
    "platform": "turk",
    "start_time": "2026-04-24T14:02:13Z",
    "condition": "emotional",
    "end_time": "2026-04-24T14:04:40Z",
    "total_time": 146351,
    "ip_address": "\"127.0.0.1\"",
    "version_date": "2023-10-21",
    "anon_id": "u721kqof2fdwpda",
    "debug_mode": false,
    "refresh_count": 10,
    "completion_code": "2782603528-exa-7932120769-mple",
    "seed": 1777039333726,
    "redirect_url": null,
    "worker_info": {
      "assignmentId": "test",
      "hitId": "test",
      "workerId": "test",
      "turkSubmitTo": "",
      "previewMode": false,
      "outsideTurk": false,
      "platform": "turk"
    },
    "browser_events": [
      {
        "event": "blur",
        "time": 109494
      },
      {
        "event": "focus",
        "time": 115786
      }
    ]
  },
  {
    "rt": 10606,
    "url": "src/html/survey6.html",
    "form_name": "survey6Form",
    "form_id": "#survey6Form",
    "experiment_phase": "survey",
    "form_data": "{\"Q1\":\"Strongly Disagree\",\"Q2\":\"Strongly Disagree\",\"Q3\":\"Strongly Disagree\",\"Q4\":\"Strongly Disagree\",\"Q5\":\"Strongly Disagree\",\"Q6\":\"Strongly Disagree\",\"Q7\":\"Strongly Disagree\",\"Q8\":\"Strongly Disagree\",\"Q9\":\"Strongly Disagree\",\"Q10\":\"Strongly Disagree\",\"Q11\":\"Strongly Disagree\",\"Q12\":\"Strongly Disagree\"}",
    "trial_type": "render-mustache-template",
    "trial_index": 18,
    "time_elapsed": 142959,
    "experiment_name": "example_experiment",
    "assignmentId": "test",
    "hitId": "test",
    "workerId": "test",
    "turkSubmitTo": "",
    "previewMode": false,
    "outsideTurk": false,
    "platform": "turk",
    "start_time": "2026-04-24T14:02:13Z",
    "condition": "emotional",
    "end_time": "2026-04-24T14:04:40Z",
    "total_time": 146351,
    "ip_address": "\"127.0.0.1\"",
    "version_date": "2023-10-21",
    "anon_id": "u721kqof2fdwpda",
    "debug_mode": false,
    "refresh_count": 10,
    "completion_code": "2782603528-exa-7932120769-mple",
    "seed": 1777039333726,
    "redirect_url": null,
    "worker_info": {
      "assignmentId": "test",
      "hitId": "test",
      "workerId": "test",
      "turkSubmitTo": "",
      "previewMode": false,
      "outsideTurk": false,
      "platform": "turk"
    },
    "browser_events": []
  },
  {
    "rt": 2101,
    "url": "src/html/debriefing.html",
    "completion_code": "2782603528-exa-7932120769-mple",
    "experiment_phase": "debriefing",
    "trial_type": "render-mustache-template",
    "trial_index": 19,
    "time_elapsed": 145218,
    "experiment_name": "example_experiment",
    "assignmentId": "test",
    "hitId": "test",
    "workerId": "test",
    "turkSubmitTo": "",
    "previewMode": false,
    "outsideTurk": false,
    "platform": "turk",
    "start_time": "2026-04-24T14:02:13Z",
    "condition": "emotional",
    "end_time": "2026-04-24T14:04:40Z",
    "total_time": 146351,
    "ip_address": "\"127.0.0.1\"",
    "version_date": "2023-10-21",
    "anon_id": "u721kqof2fdwpda",
    "debug_mode": false,
    "refresh_count": 10,
    "seed": 1777039333726,
    "redirect_url": null,
    "worker_info": {
      "assignmentId": "test",
      "hitId": "test",
      "workerId": "test",
      "turkSubmitTo": "",
      "previewMode": false,
      "outsideTurk": false,
      "platform": "turk"
    },
    "browser_events": []
  },
  {
    "success": true,
    "trial_type": "fullscreen",
    "trial_index": 20,
    "time_elapsed": 146321,
    "experiment_name": "example_experiment",
    "assignmentId": "test",
    "hitId": "test",
    "workerId": "test",
    "turkSubmitTo": "",
    "previewMode": false,
    "outsideTurk": false,
    "platform": "turk",
    "start_time": "2026-04-24T14:02:13Z",
    "condition": "emotional",
    "end_time": "2026-04-24T14:04:40Z",
    "total_time": 146351,
    "ip_address": "\"127.0.0.1\"",
    "version_date": "2023-10-21",
    "anon_id": "u721kqof2fdwpda",
    "debug_mode": false,
    "refresh_count": 10,
    "completion_code": "2782603528-exa-7932120769-mple",
    "seed": 1777039333726,
    "redirect_url": null,
    "worker_info": {
      "assignmentId": "test",
      "hitId": "test",
      "workerId": "test",
      "turkSubmitTo": "",
      "previewMode": false,
      "outsideTurk": false,
      "platform": "turk"
    },
    "browser_events": []
  }
]