[
  {
    "rt": 2910,
    "url": "src/html/consent.html",
    "experiment_phase": "consent",
    "refresh_count": 0,
    "trial_type": "render-mustache-template",
    "trial_index": 0,
    "time_elapsed": 2946,
    "experiment_name": "example_experiment",
    "assignmentId": "test",
    "hitId": "test",
    "workerId": "test",
    "turkSubmitTo": "",
    "previewMode": false,
    "outsideTurk": false,
    "platform": "turk",
    "start_time": "2026-03-02T16:36:06Z",
    "condition": "emotional",
    "end_time": "2026-03-02T16:37:15Z",
    "total_time": 69153,
    "ip_address": "\"127.0.0.1\"",
    "version_date": "2023-10-21",
    "anon_id": "3pfc8hmmlctlvrn",
    "debug_mode": false,
    "completion_code": "5329351647-exa-9170938180-mple",
    "seed": 1772469366491,
    "redirect_url": null,
    "worker_info": {
      "assignmentId": "test",
      "hitId": "test",
      "workerId": "test",
      "turkSubmitTo": "",
      "previewMode": false,
      "outsideTurk": false,
      "platform": "turk"
    },
    "browser_events": []
  },
  {
    "rt": 43315,
    "url": "src/html/survey.html",
    "form_name": "surveyForm",
    "form_id": "#surveyForm",
    "experiment_phase": "survey",
    "form_data": "{\"whatTested\":\"asdfj;oasjfds\",\"Q1\":\"Easy\",\"estimatedPerformance\":\"100\",\"strategies\":\"noasdfsaf\",\"interruption\":\"No, I did not interrupt the task.\",\"participatedBefore\":\"No\",\"issues\":\"no\",\"seriousness\":\"99\",\"comments\":\"no\",\"age\":\"20\",\"race\":[\"East Asian\"],\"sex\":\"Male\",\"gender\":\"male\"}",
    "trial_type": "render-mustache-template",
    "trial_index": 1,
    "time_elapsed": 46386,
    "experiment_name": "example_experiment",
    "assignmentId": "test",
    "hitId": "test",
    "workerId": "test",
    "turkSubmitTo": "",
    "previewMode": false,
    "outsideTurk": false,
    "platform": "turk",
    "start_time": "2026-03-02T16:36:06Z",
    "condition": "emotional",
    "end_time": "2026-03-02T16:37:15Z",
    "total_time": 69153,
    "ip_address": "\"127.0.0.1\"",
    "version_date": "2023-10-21",
    "anon_id": "3pfc8hmmlctlvrn",
    "debug_mode": false,
    "refresh_count": 0,
    "completion_code": "5329351647-exa-9170938180-mple",
    "seed": 1772469366491,
    "redirect_url": null,
    "worker_info": {
      "assignmentId": "test",
      "hitId": "test",
      "workerId": "test",
      "turkSubmitTo": "",
      "previewMode": false,
      "outsideTurk": false,
      "platform": "turk"
    },
    "browser_events": []
  },
  {
    "success": true,
    "trial_type": "fullscreen",
    "trial_index": 2,
    "time_elapsed": 47496,
    "screen_width": 1440,
    "screen_height": 900,
    "window_width": 1173,
    "window_height": 819,
    "experiment_name": "example_experiment",
    "assignmentId": "test",
    "hitId": "test",
    "workerId": "test",
    "turkSubmitTo": "",
    "previewMode": false,
    "outsideTurk": false,
    "platform": "turk",
    "start_time": "2026-03-02T16:36:06Z",
    "condition": "emotional",
    "end_time": "2026-03-02T16:37:15Z",
    "total_time": 69153,
    "ip_address": "\"127.0.0.1\"",
    "version_date": "2023-10-21",
    "anon_id": "3pfc8hmmlctlvrn",
    "debug_mode": false,
    "refresh_count": 0,
    "completion_code": "5329351647-exa-9170938180-mple",
    "seed": 1772469366491,
    "redirect_url": null,
    "worker_info": {
      "assignmentId": "test",
      "hitId": "test",
      "workerId": "test",
      "turkSubmitTo": "",
      "previewMode": false,
      "outsideTurk": false,
      "platform": "turk"
    },
    "browser_events": [
      {
        "event": "fullscreenenter",
        "time": 47415
      }
    ]
  },
  {
    "rt": 2719,
    "url": "src/html/attrition.html",
    "form_name": "attritionForm",
    "form_id": "#attritionForm",
    "experiment_phase": "attrition",
    "trial_type": "render-mustache-template",
    "trial_index": 3,
    "time_elapsed": 50227,
    "instructions_viewed_count": 0,
    "experiment_name": "example_experiment",
    "assignmentId": "test",
    "hitId": "test",
    "workerId": "test",
    "turkSubmitTo": "",
    "previewMode": false,
    "outsideTurk": false,
    "platform": "turk",
    "start_time": "2026-03-02T16:36:06Z",
    "condition": "emotional",
    "end_time": "2026-03-02T16:37:15Z",
    "total_time": 69153,
    "ip_address": "\"127.0.0.1\"",
    "version_date": "2023-10-21",
    "anon_id": "3pfc8hmmlctlvrn",
    "debug_mode": false,
    "refresh_count": 0,
    "completion_code": "5329351647-exa-9170938180-mple",
    "seed": 1772469366491,
    "redirect_url": null,
    "worker_info": {
      "assignmentId": "test",
      "hitId": "test",
      "workerId": "test",
      "turkSubmitTo": "",
      "previewMode": false,
      "outsideTurk": false,
      "platform": "turk"
    },
    "browser_events": []
  },
  {
    "view_history": [
      {
        "page_index": 0,
        "viewing_time": 1915.0999999996275
      }
    ],
    "rt": 1916.0999999996275,
    "trial_type": "instructions",
    "trial_index": 4,
    "time_elapsed": 52246,
    "experiment_name": "example_experiment",
    "assignmentId": "test",
    "hitId": "test",
    "workerId": "test",
    "turkSubmitTo": "",
    "previewMode": false,
    "outsideTurk": false,
    "platform": "turk",
    "start_time": "2026-03-02T16:36:06Z",
    "condition": "emotional",
    "end_time": "2026-03-02T16:37:15Z",
    "total_time": 69153,
    "ip_address": "\"127.0.0.1\"",
    "version_date": "2023-10-21",
    "anon_id": "3pfc8hmmlctlvrn",
    "debug_mode": false,
    "refresh_count": 0,
    "completion_code": "5329351647-exa-9170938180-mple",
    "seed": 1772469366491,
    "redirect_url": null,
    "worker_info": {
      "assignmentId": "test",
      "hitId": "test",
      "workerId": "test",
      "turkSubmitTo": "",
      "previewMode": false,
      "outsideTurk": false,
      "platform": "turk"
    },
    "browser_events": []
  },
  {
    "rt": 1381,
    "response": 34,
    "initial_response": 34,
    "initial_response_time": 694,
    "all_responses": [
      34
    ],
    "all_response_times": [
      694
    ],
    "stimulus": "src/images/jpg/1.jpg",
    "condition": "emotional",
    "experiment_phase": "main",
    "trial_type": "image-slider-response",
    "trial_index": 5,
    "time_elapsed": 53731,
    "experiment_name": "example_experiment",
    "assignmentId": "test",
    "hitId": "test",
    "workerId": "test",
    "turkSubmitTo": "",
    "previewMode": false,
    "outsideTurk": false,
    "platform": "turk",
    "start_time": "2026-03-02T16:36:06Z",
    "end_time": "2026-03-02T16:37:15Z",
    "total_time": 69153,
    "ip_address": "\"127.0.0.1\"",
    "version_date": "2023-10-21",
    "anon_id": "3pfc8hmmlctlvrn",
    "debug_mode": false,
    "refresh_count": 0,
    "completion_code": "5329351647-exa-9170938180-mple",
    "seed": 1772469366491,
    "redirect_url": null,
    "worker_info": {
      "assignmentId": "test",
      "hitId": "test",
      "workerId": "test",
      "turkSubmitTo": "",
      "previewMode": false,
      "outsideTurk": false,
      "platform": "turk"
    },
    "browser_events": []
  },
  {
    "rt": 1062,
    "response": 31,
    "initial_response": 31,
    "initial_response_time": 567,
    "all_responses": [
      31,
      31
    ],
    "all_response_times": [
      567,
      576
    ],
    "stimulus": "src/images/jpg/2.jpg",
    "condition": "emotional",
    "experiment_phase": "main",
    "trial_type": "image-slider-response",
    "trial_index": 6,
    "time_elapsed": 54896,
    "experiment_name": "example_experiment",
    "assignmentId": "test",
    "hitId": "test",
    "workerId": "test",
    "turkSubmitTo": "",
    "previewMode": false,
    "outsideTurk": false,
    "platform": "turk",
    "start_time": "2026-03-02T16:36:06Z",
    "end_time": "2026-03-02T16:37:15Z",
    "total_time": 69153,
    "ip_address": "\"127.0.0.1\"",
    "version_date": "2023-10-21",
    "anon_id": "3pfc8hmmlctlvrn",
    "debug_mode": false,
    "refresh_count": 0,
    "completion_code": "5329351647-exa-9170938180-mple",
    "seed": 1772469366491,
    "redirect_url": null,
    "worker_info": {
      "assignmentId": "test",
      "hitId": "test",
      "workerId": "test",
      "turkSubmitTo": "",
      "previewMode": false,
      "outsideTurk": false,
      "platform": "turk"
    },
    "browser_events": []
  },
  {
    "rt": 1113,
    "response": 31,
    "initial_response": 31,
    "initial_response_time": 636,
    "all_responses": [
      31
    ],
    "all_response_times": [
      636
    ],
    "stimulus": "src/images/jpg/3.jpg",
    "condition": "emotional",
    "experiment_phase": "main",
    "trial_type": "image-slider-response",
    "trial_index": 7,
    "time_elapsed": 56112,
    "experiment_name": "example_experiment",
    "assignmentId": "test",
    "hitId": "test",
    "workerId": "test",
    "turkSubmitTo": "",
    "previewMode": false,
    "outsideTurk": false,
    "platform": "turk",
    "start_time": "2026-03-02T16:36:06Z",
    "end_time": "2026-03-02T16:37:15Z",
    "total_time": 69153,
    "ip_address": "\"127.0.0.1\"",
    "version_date": "2023-10-21",
    "anon_id": "3pfc8hmmlctlvrn",
    "debug_mode": false,
    "refresh_count": 0,
    "completion_code": "5329351647-exa-9170938180-mple",
    "seed": 1772469366491,
    "redirect_url": null,
    "worker_info": {
      "assignmentId": "test",
      "hitId": "test",
      "workerId": "test",
      "turkSubmitTo": "",
      "previewMode": false,
      "outsideTurk": false,
      "platform": "turk"
    },
    "browser_events": []
  },
  {
    "rt": 1014,
    "response": 31,
    "initial_response": 31,
    "initial_response_time": 575,
    "all_responses": [
      31,
      31
    ],
    "all_response_times": [
      575,
      577
    ],
    "stimulus": "src/images/jpg/4.jpg",
    "condition": "emotional",
    "experiment_phase": "main",
    "trial_type": "image-slider-response",
    "trial_index": 8,
    "time_elapsed": 57228,
    "experiment_name": "example_experiment",
    "assignmentId": "test",
    "hitId": "test",
    "workerId": "test",
    "turkSubmitTo": "",
    "previewMode": false,
    "outsideTurk": false,
    "platform": "turk",
    "start_time": "2026-03-02T16:36:06Z",
    "end_time": "2026-03-02T16:37:15Z",
    "total_time": 69153,
    "ip_address": "\"127.0.0.1\"",
    "version_date": "2023-10-21",
    "anon_id": "3pfc8hmmlctlvrn",
    "debug_mode": false,
    "refresh_count": 0,
    "completion_code": "5329351647-exa-9170938180-mple",
    "seed": 1772469366491,
    "redirect_url": null,
    "worker_info": {
      "assignmentId": "test",
      "hitId": "test",
      "workerId": "test",
      "turkSubmitTo": "",
      "previewMode": false,
      "outsideTurk": false,
      "platform": "turk"
    },
    "browser_events": []
  },
  {
    "rt": 2048,
    "response": 36,
    "initial_response": 36,
    "initial_response_time": 1629,
    "all_responses": [
      36
    ],
    "all_response_times": [
      1629
    ],
    "stimulus": "src/images/jpg/5.jpg",
    "condition": "emotional",
    "experiment_phase": "main",
    "trial_type": "image-slider-response",
    "trial_index": 9,
    "time_elapsed": 59379,
    "experiment_name": "example_experiment",
    "assignmentId": "test",
    "hitId": "test",
    "workerId": "test",
    "turkSubmitTo": "",
    "previewMode": false,
    "outsideTurk": false,
    "platform": "turk",
    "start_time": "2026-03-02T16:36:06Z",
    "end_time": "2026-03-02T16:37:15Z",
    "total_time": 69153,
    "ip_address": "\"127.0.0.1\"",
    "version_date": "2023-10-21",
    "anon_id": "3pfc8hmmlctlvrn",
    "debug_mode": false,
    "refresh_count": 0,
    "completion_code": "5329351647-exa-9170938180-mple",
    "seed": 1772469366491,
    "redirect_url": null,
    "worker_info": {
      "assignmentId": "test",
      "hitId": "test",
      "workerId": "test",
      "turkSubmitTo": "",
      "previewMode": false,
      "outsideTurk": false,
      "platform": "turk"
    },
    "browser_events": []
  },
  {
    "rt": 1071,
    "response": 29,
    "initial_response": 29,
    "initial_response_time": 597,
    "all_responses": [
      29
    ],
    "all_response_times": [
      597
    ],
    "stimulus": "src/images/jpg/6.jpg",
    "condition": "emotional",
    "experiment_phase": "main",
    "trial_type": "image-slider-response",
    "trial_index": 10,
    "time_elapsed": 60552,
    "experiment_name": "example_experiment",
    "assignmentId": "test",
    "hitId": "test",
    "workerId": "test",
    "turkSubmitTo": "",
    "previewMode": false,
    "outsideTurk": false,
    "platform": "turk",
    "start_time": "2026-03-02T16:36:06Z",
    "end_time": "2026-03-02T16:37:15Z",
    "total_time": 69153,
    "ip_address": "\"127.0.0.1\"",
    "version_date": "2023-10-21",
    "anon_id": "3pfc8hmmlctlvrn",
    "debug_mode": false,
    "refresh_count": 0,
    "completion_code": "5329351647-exa-9170938180-mple",
    "seed": 1772469366491,
    "redirect_url": null,
    "worker_info": {
      "assignmentId": "test",
      "hitId": "test",
      "workerId": "test",
      "turkSubmitTo": "",
      "previewMode": false,
      "outsideTurk": false,
      "platform": "turk"
    },
    "browser_events": []
  },
  {
    "rt": 1084,
    "response": 28,
    "initial_response": 28,
    "initial_response_time": 576,
    "all_responses": [
      28,
      28
    ],
    "all_response_times": [
      576,
      578
    ],
    "stimulus": "src/images/jpg/7.jpg",
    "condition": "emotional",
    "experiment_phase": "main",
    "trial_type": "image-slider-response",
    "trial_index": 11,
    "time_elapsed": 61739,
    "experiment_name": "example_experiment",
    "assignmentId": "test",
    "hitId": "test",
    "workerId": "test",
    "turkSubmitTo": "",
    "previewMode": false,
    "outsideTurk": false,
    "platform": "turk",
    "start_time": "2026-03-02T16:36:06Z",
    "end_time": "2026-03-02T16:37:15Z",
    "total_time": 69153,
    "ip_address": "\"127.0.0.1\"",
    "version_date": "2023-10-21",
    "anon_id": "3pfc8hmmlctlvrn",
    "debug_mode": false,
    "refresh_count": 0,
    "completion_code": "5329351647-exa-9170938180-mple",
    "seed": 1772469366491,
    "redirect_url": null,
    "worker_info": {
      "assignmentId": "test",
      "hitId": "test",
      "workerId": "test",
      "turkSubmitTo": "",
      "previewMode": false,
      "outsideTurk": false,
      "platform": "turk"
    },
    "browser_events": []
  },
  {
    "rt": 1386,
    "response": 31,
    "initial_response": 31,
    "initial_response_time": 647,
    "all_responses": [
      31,
      31
    ],
    "all_response_times": [
      647,
      663
    ],
    "stimulus": "src/images/jpg/8.jpg",
    "condition": "emotional",
    "experiment_phase": "main",
    "trial_type": "image-slider-response",
    "trial_index": 12,
    "time_elapsed": 63227,
    "experiment_name": "example_experiment",
    "assignmentId": "test",
    "hitId": "test",
    "workerId": "test",
    "turkSubmitTo": "",
    "previewMode": false,
    "outsideTurk": false,
    "platform": "turk",
    "start_time": "2026-03-02T16:36:06Z",
    "end_time": "2026-03-02T16:37:15Z",
    "total_time": 69153,
    "ip_address": "\"127.0.0.1\"",
    "version_date": "2023-10-21",
    "anon_id": "3pfc8hmmlctlvrn",
    "debug_mode": false,
    "refresh_count": 0,
    "completion_code": "5329351647-exa-9170938180-mple",
    "seed": 1772469366491,
    "redirect_url": null,
    "worker_info": {
      "assignmentId": "test",
      "hitId": "test",
      "workerId": "test",
      "turkSubmitTo": "",
      "previewMode": false,
      "outsideTurk": false,
      "platform": "turk"
    },
    "browser_events": []
  },
  {
    "rt": 1115,
    "response": 32,
    "initial_response": 32,
    "initial_response_time": 652,
    "all_responses": [
      32
    ],
    "all_response_times": [
      652
    ],
    "stimulus": "src/images/jpg/9.jpg",
    "condition": "emotional",
    "experiment_phase": "main",
    "trial_type": "image-slider-response",
    "trial_index": 13,
    "time_elapsed": 64445,
    "experiment_name": "example_experiment",
    "assignmentId": "test",
    "hitId": "test",
    "workerId": "test",
    "turkSubmitTo": "",
    "previewMode": false,
    "outsideTurk": false,
    "platform": "turk",
    "start_time": "2026-03-02T16:36:06Z",
    "end_time": "2026-03-02T16:37:15Z",
    "total_time": 69153,
    "ip_address": "\"127.0.0.1\"",
    "version_date": "2023-10-21",
    "anon_id": "3pfc8hmmlctlvrn",
    "debug_mode": false,
    "refresh_count": 0,
    "completion_code": "5329351647-exa-9170938180-mple",
    "seed": 1772469366491,
    "redirect_url": null,
    "worker_info": {
      "assignmentId": "test",
      "hitId": "test",
      "workerId": "test",
      "turkSubmitTo": "",
      "previewMode": false,
      "outsideTurk": false,
      "platform": "turk"
    },
    "browser_events": []
  },
  {
    "rt": 1046,
    "response": 29,
    "initial_response": 29,
    "initial_response_time": 558,
    "all_responses": [
      29
    ],
    "all_response_times": [
      558
    ],
    "stimulus": "src/images/jpg/10.jpg",
    "condition": "emotional",
    "experiment_phase": "main",
    "trial_type": "image-slider-response",
    "trial_index": 14,
    "time_elapsed": 65594,
    "experiment_name": "example_experiment",
    "assignmentId": "test",
    "hitId": "test",
    "workerId": "test",
    "turkSubmitTo": "",
    "previewMode": false,
    "outsideTurk": false,
    "platform": "turk",
    "start_time": "2026-03-02T16:36:06Z",
    "end_time": "2026-03-02T16:37:15Z",
    "total_time": 69153,
    "ip_address": "\"127.0.0.1\"",
    "version_date": "2023-10-21",
    "anon_id": "3pfc8hmmlctlvrn",
    "debug_mode": false,
    "refresh_count": 0,
    "completion_code": "5329351647-exa-9170938180-mple",
    "seed": 1772469366491,
    "redirect_url": null,
    "worker_info": {
      "assignmentId": "test",
      "hitId": "test",
      "workerId": "test",
      "turkSubmitTo": "",
      "previewMode": false,
      "outsideTurk": false,
      "platform": "turk"
    },
    "browser_events": []
  },
  {
    "rt": 2270,
    "url": "src/html/debriefing.html",
    "completion_code": "5329351647-exa-9170938180-mple",
    "experiment_phase": "debriefing",
    "trial_type": "render-mustache-template",
    "trial_index": 15,
    "time_elapsed": 67979,
    "experiment_name": "example_experiment",
    "assignmentId": "test",
    "hitId": "test",
    "workerId": "test",
    "turkSubmitTo": "",
    "previewMode": false,
    "outsideTurk": false,
    "platform": "turk",
    "start_time": "2026-03-02T16:36:06Z",
    "condition": "emotional",
    "end_time": "2026-03-02T16:37:15Z",
    "total_time": 69153,
    "ip_address": "\"127.0.0.1\"",
    "version_date": "2023-10-21",
    "anon_id": "3pfc8hmmlctlvrn",
    "debug_mode": false,
    "refresh_count": 0,
    "seed": 1772469366491,
    "redirect_url": null,
    "worker_info": {
      "assignmentId": "test",
      "hitId": "test",
      "workerId": "test",
      "turkSubmitTo": "",
      "previewMode": false,
      "outsideTurk": false,
      "platform": "turk"
    },
    "browser_events": []
  },
  {
    "success": true,
    "trial_type": "fullscreen",
    "trial_index": 16,
    "time_elapsed": 69082,
    "experiment_name": "example_experiment",
    "assignmentId": "test",
    "hitId": "test",
    "workerId": "test",
    "turkSubmitTo": "",
    "previewMode": false,
    "outsideTurk": false,
    "platform": "turk",
    "start_time": "2026-03-02T16:36:06Z",
    "condition": "emotional",
    "end_time": "2026-03-02T16:37:15Z",
    "total_time": 69153,
    "ip_address": "\"127.0.0.1\"",
    "version_date": "2023-10-21",
    "anon_id": "3pfc8hmmlctlvrn",
    "debug_mode": false,
    "refresh_count": 0,
    "completion_code": "5329351647-exa-9170938180-mple",
    "seed": 1772469366491,
    "redirect_url": null,
    "worker_info": {
      "assignmentId": "test",
      "hitId": "test",
      "workerId": "test",
      "turkSubmitTo": "",
      "previewMode": false,
      "outsideTurk": false,
      "platform": "turk"
    },
    "browser_events": [
      {
        "event": "fullscreenexit",
        "time": 68117
      }
    ]
  }
]