[
  {
    "rt": 3639,
    "url": "src/html/consent.html",
    "experiment_phase": "consent",
    "refresh_count": 0,
    "trial_type": "render-mustache-template",
    "trial_index": 0,
    "time_elapsed": 3687,
    "experiment_name": "example_experiment",
    "assignmentId": "test",
    "hitId": "test",
    "workerId": "test",
    "turkSubmitTo": "",
    "previewMode": false,
    "outsideTurk": false,
    "platform": "turk",
    "start_time": "2026-03-02T17:04:19Z",
    "condition": "emotional",
    "end_time": "2026-03-02T17:06:46Z",
    "total_time": 147584,
    "ip_address": "\"127.0.0.1\"",
    "version_date": "2023-10-21",
    "anon_id": "zyuhn3nlc8f15s9",
    "debug_mode": false,
    "completion_code": "3774204543-exa-2771890095-mple",
    "seed": 1772471059018,
    "redirect_url": null,
    "worker_info": {
      "assignmentId": "test",
      "hitId": "test",
      "workerId": "test",
      "turkSubmitTo": "",
      "previewMode": false,
      "outsideTurk": false,
      "platform": "turk"
    },
    "browser_events": []
  },
  {
    "rt": 121303,
    "url": "src/html/survey.html",
    "form_name": "surveyForm",
    "form_id": "#surveyForm",
    "experiment_phase": "survey",
    "form_data": "{\"whatTested\":\"bbbbbbbas\",\"Q1\":\"Easy\",\"Q2\":\"Very Easy\",\"estimatedPerformance\":\"99\",\"strategies\":\"asdfdsafs\",\"interruption\":\"No, I did not interrupt the task.\",\"participatedBefore\":\"No\",\"issues\":\"no\",\"seriousness\":\"100\",\"comments\":\"\",\"age\":\"20\",\"race\":[\"Black/African American\"],\"sex\":\"Female\",\"gender\":\"male\"}",
    "trial_type": "render-mustache-template",
    "trial_index": 1,
    "time_elapsed": 125123,
    "experiment_name": "example_experiment",
    "assignmentId": "test",
    "hitId": "test",
    "workerId": "test",
    "turkSubmitTo": "",
    "previewMode": false,
    "outsideTurk": false,
    "platform": "turk",
    "start_time": "2026-03-02T17:04:19Z",
    "condition": "emotional",
    "end_time": "2026-03-02T17:06:46Z",
    "total_time": 147584,
    "ip_address": "\"127.0.0.1\"",
    "version_date": "2023-10-21",
    "anon_id": "zyuhn3nlc8f15s9",
    "debug_mode": false,
    "refresh_count": 0,
    "completion_code": "3774204543-exa-2771890095-mple",
    "seed": 1772471059018,
    "redirect_url": null,
    "worker_info": {
      "assignmentId": "test",
      "hitId": "test",
      "workerId": "test",
      "turkSubmitTo": "",
      "previewMode": false,
      "outsideTurk": false,
      "platform": "turk"
    },
    "browser_events": [
      {
        "event": "blur",
        "time": 8375
      },
      {
        "event": "focus",
        "time": 81059
      }
    ]
  },
  {
    "success": true,
    "trial_type": "fullscreen",
    "trial_index": 2,
    "time_elapsed": 126186,
    "screen_width": 1440,
    "screen_height": 900,
    "window_width": 1173,
    "window_height": 819,
    "experiment_name": "example_experiment",
    "assignmentId": "test",
    "hitId": "test",
    "workerId": "test",
    "turkSubmitTo": "",
    "previewMode": false,
    "outsideTurk": false,
    "platform": "turk",
    "start_time": "2026-03-02T17:04:19Z",
    "condition": "emotional",
    "end_time": "2026-03-02T17:06:46Z",
    "total_time": 147584,
    "ip_address": "\"127.0.0.1\"",
    "version_date": "2023-10-21",
    "anon_id": "zyuhn3nlc8f15s9",
    "debug_mode": false,
    "refresh_count": 0,
    "completion_code": "3774204543-exa-2771890095-mple",
    "seed": 1772471059018,
    "redirect_url": null,
    "worker_info": {
      "assignmentId": "test",
      "hitId": "test",
      "workerId": "test",
      "turkSubmitTo": "",
      "previewMode": false,
      "outsideTurk": false,
      "platform": "turk"
    },
    "browser_events": [
      {
        "event": "fullscreenenter",
        "time": 126091
      }
    ]
  },
  {
    "rt": 2598,
    "url": "src/html/attrition.html",
    "form_name": "attritionForm",
    "form_id": "#attritionForm",
    "experiment_phase": "attrition",
    "trial_type": "render-mustache-template",
    "trial_index": 3,
    "time_elapsed": 128798,
    "instructions_viewed_count": 0,
    "experiment_name": "example_experiment",
    "assignmentId": "test",
    "hitId": "test",
    "workerId": "test",
    "turkSubmitTo": "",
    "previewMode": false,
    "outsideTurk": false,
    "platform": "turk",
    "start_time": "2026-03-02T17:04:19Z",
    "condition": "emotional",
    "end_time": "2026-03-02T17:06:46Z",
    "total_time": 147584,
    "ip_address": "\"127.0.0.1\"",
    "version_date": "2023-10-21",
    "anon_id": "zyuhn3nlc8f15s9",
    "debug_mode": false,
    "refresh_count": 0,
    "completion_code": "3774204543-exa-2771890095-mple",
    "seed": 1772471059018,
    "redirect_url": null,
    "worker_info": {
      "assignmentId": "test",
      "hitId": "test",
      "workerId": "test",
      "turkSubmitTo": "",
      "previewMode": false,
      "outsideTurk": false,
      "platform": "turk"
    },
    "browser_events": []
  },
  {
    "view_history": [
      {
        "page_index": 0,
        "viewing_time": 867.0999999996275
      }
    ],
    "rt": 867.6999999992549,
    "trial_type": "instructions",
    "trial_index": 4,
    "time_elapsed": 129770,
    "experiment_name": "example_experiment",
    "assignmentId": "test",
    "hitId": "test",
    "workerId": "test",
    "turkSubmitTo": "",
    "previewMode": false,
    "outsideTurk": false,
    "platform": "turk",
    "start_time": "2026-03-02T17:04:19Z",
    "condition": "emotional",
    "end_time": "2026-03-02T17:06:46Z",
    "total_time": 147584,
    "ip_address": "\"127.0.0.1\"",
    "version_date": "2023-10-21",
    "anon_id": "zyuhn3nlc8f15s9",
    "debug_mode": false,
    "refresh_count": 0,
    "completion_code": "3774204543-exa-2771890095-mple",
    "seed": 1772471059018,
    "redirect_url": null,
    "worker_info": {
      "assignmentId": "test",
      "hitId": "test",
      "workerId": "test",
      "turkSubmitTo": "",
      "previewMode": false,
      "outsideTurk": false,
      "platform": "turk"
    },
    "browser_events": []
  },
  {
    "rt": 1513,
    "response": 47,
    "initial_response": 47,
    "initial_response_time": 883,
    "all_responses": [
      47
    ],
    "all_response_times": [
      883
    ],
    "stimulus": "src/images/jpg/1.jpg",
    "condition": "emotional",
    "experiment_phase": "main",
    "trial_type": "image-slider-response",
    "trial_index": 5,
    "time_elapsed": 131389,
    "experiment_name": "example_experiment",
    "assignmentId": "test",
    "hitId": "test",
    "workerId": "test",
    "turkSubmitTo": "",
    "previewMode": false,
    "outsideTurk": false,
    "platform": "turk",
    "start_time": "2026-03-02T17:04:19Z",
    "end_time": "2026-03-02T17:06:46Z",
    "total_time": 147584,
    "ip_address": "\"127.0.0.1\"",
    "version_date": "2023-10-21",
    "anon_id": "zyuhn3nlc8f15s9",
    "debug_mode": false,
    "refresh_count": 0,
    "completion_code": "3774204543-exa-2771890095-mple",
    "seed": 1772471059018,
    "redirect_url": null,
    "worker_info": {
      "assignmentId": "test",
      "hitId": "test",
      "workerId": "test",
      "turkSubmitTo": "",
      "previewMode": false,
      "outsideTurk": false,
      "platform": "turk"
    },
    "browser_events": []
  },
  {
    "rt": 1026,
    "response": 45,
    "initial_response": 45,
    "initial_response_time": 562,
    "all_responses": [
      45
    ],
    "all_response_times": [
      562
    ],
    "stimulus": "src/images/jpg/2.jpg",
    "condition": "emotional",
    "experiment_phase": "main",
    "trial_type": "image-slider-response",
    "trial_index": 6,
    "time_elapsed": 132518,
    "experiment_name": "example_experiment",
    "assignmentId": "test",
    "hitId": "test",
    "workerId": "test",
    "turkSubmitTo": "",
    "previewMode": false,
    "outsideTurk": false,
    "platform": "turk",
    "start_time": "2026-03-02T17:04:19Z",
    "end_time": "2026-03-02T17:06:46Z",
    "total_time": 147584,
    "ip_address": "\"127.0.0.1\"",
    "version_date": "2023-10-21",
    "anon_id": "zyuhn3nlc8f15s9",
    "debug_mode": false,
    "refresh_count": 0,
    "completion_code": "3774204543-exa-2771890095-mple",
    "seed": 1772471059018,
    "redirect_url": null,
    "worker_info": {
      "assignmentId": "test",
      "hitId": "test",
      "workerId": "test",
      "turkSubmitTo": "",
      "previewMode": false,
      "outsideTurk": false,
      "platform": "turk"
    },
    "browser_events": []
  },
  {
    "rt": 1580,
    "response": 43,
    "initial_response": 43,
    "initial_response_time": 1103,
    "all_responses": [
      43
    ],
    "all_response_times": [
      1103
    ],
    "stimulus": "src/images/jpg/3.jpg",
    "condition": "emotional",
    "experiment_phase": "main",
    "trial_type": "image-slider-response",
    "trial_index": 7,
    "time_elapsed": 134201,
    "experiment_name": "example_experiment",
    "assignmentId": "test",
    "hitId": "test",
    "workerId": "test",
    "turkSubmitTo": "",
    "previewMode": false,
    "outsideTurk": false,
    "platform": "turk",
    "start_time": "2026-03-02T17:04:19Z",
    "end_time": "2026-03-02T17:06:46Z",
    "total_time": 147584,
    "ip_address": "\"127.0.0.1\"",
    "version_date": "2023-10-21",
    "anon_id": "zyuhn3nlc8f15s9",
    "debug_mode": false,
    "refresh_count": 0,
    "completion_code": "3774204543-exa-2771890095-mple",
    "seed": 1772471059018,
    "redirect_url": null,
    "worker_info": {
      "assignmentId": "test",
      "hitId": "test",
      "workerId": "test",
      "turkSubmitTo": "",
      "previewMode": false,
      "outsideTurk": false,
      "platform": "turk"
    },
    "browser_events": []
  },
  {
    "rt": 1127,
    "response": 43,
    "initial_response": 43,
    "initial_response_time": 659,
    "all_responses": [
      43
    ],
    "all_response_times": [
      659
    ],
    "stimulus": "src/images/jpg/4.jpg",
    "condition": "emotional",
    "experiment_phase": "main",
    "trial_type": "image-slider-response",
    "trial_index": 8,
    "time_elapsed": 135431,
    "experiment_name": "example_experiment",
    "assignmentId": "test",
    "hitId": "test",
    "workerId": "test",
    "turkSubmitTo": "",
    "previewMode": false,
    "outsideTurk": false,
    "platform": "turk",
    "start_time": "2026-03-02T17:04:19Z",
    "end_time": "2026-03-02T17:06:46Z",
    "total_time": 147584,
    "ip_address": "\"127.0.0.1\"",
    "version_date": "2023-10-21",
    "anon_id": "zyuhn3nlc8f15s9",
    "debug_mode": false,
    "refresh_count": 0,
    "completion_code": "3774204543-exa-2771890095-mple",
    "seed": 1772471059018,
    "redirect_url": null,
    "worker_info": {
      "assignmentId": "test",
      "hitId": "test",
      "workerId": "test",
      "turkSubmitTo": "",
      "previewMode": false,
      "outsideTurk": false,
      "platform": "turk"
    },
    "browser_events": []
  },
  {
    "rt": 1414,
    "response": 42,
    "initial_response": 42,
    "initial_response_time": 855,
    "all_responses": [
      42
    ],
    "all_response_times": [
      855
    ],
    "stimulus": "src/images/jpg/5.jpg",
    "condition": "emotional",
    "experiment_phase": "main",
    "trial_type": "image-slider-response",
    "trial_index": 9,
    "time_elapsed": 136948,
    "experiment_name": "example_experiment",
    "assignmentId": "test",
    "hitId": "test",
    "workerId": "test",
    "turkSubmitTo": "",
    "previewMode": false,
    "outsideTurk": false,
    "platform": "turk",
    "start_time": "2026-03-02T17:04:19Z",
    "end_time": "2026-03-02T17:06:46Z",
    "total_time": 147584,
    "ip_address": "\"127.0.0.1\"",
    "version_date": "2023-10-21",
    "anon_id": "zyuhn3nlc8f15s9",
    "debug_mode": false,
    "refresh_count": 0,
    "completion_code": "3774204543-exa-2771890095-mple",
    "seed": 1772471059018,
    "redirect_url": null,
    "worker_info": {
      "assignmentId": "test",
      "hitId": "test",
      "workerId": "test",
      "turkSubmitTo": "",
      "previewMode": false,
      "outsideTurk": false,
      "platform": "turk"
    },
    "browser_events": []
  },
  {
    "rt": 1526,
    "response": 44,
    "initial_response": 44,
    "initial_response_time": 998,
    "all_responses": [
      44,
      44
    ],
    "all_response_times": [
      998,
      1001
    ],
    "stimulus": "src/images/jpg/6.jpg",
    "condition": "emotional",
    "experiment_phase": "main",
    "trial_type": "image-slider-response",
    "trial_index": 10,
    "time_elapsed": 138577,
    "experiment_name": "example_experiment",
    "assignmentId": "test",
    "hitId": "test",
    "workerId": "test",
    "turkSubmitTo": "",
    "previewMode": false,
    "outsideTurk": false,
    "platform": "turk",
    "start_time": "2026-03-02T17:04:19Z",
    "end_time": "2026-03-02T17:06:46Z",
    "total_time": 147584,
    "ip_address": "\"127.0.0.1\"",
    "version_date": "2023-10-21",
    "anon_id": "zyuhn3nlc8f15s9",
    "debug_mode": false,
    "refresh_count": 0,
    "completion_code": "3774204543-exa-2771890095-mple",
    "seed": 1772471059018,
    "redirect_url": null,
    "worker_info": {
      "assignmentId": "test",
      "hitId": "test",
      "workerId": "test",
      "turkSubmitTo": "",
      "previewMode": false,
      "outsideTurk": false,
      "platform": "turk"
    },
    "browser_events": []
  },
  {
    "rt": 1538,
    "response": 46,
    "initial_response": 46,
    "initial_response_time": 1038,
    "all_responses": [
      46
    ],
    "all_response_times": [
      1038
    ],
    "stimulus": "src/images/jpg/7.jpg",
    "condition": "emotional",
    "experiment_phase": "main",
    "trial_type": "image-slider-response",
    "trial_index": 11,
    "time_elapsed": 140217,
    "experiment_name": "example_experiment",
    "assignmentId": "test",
    "hitId": "test",
    "workerId": "test",
    "turkSubmitTo": "",
    "previewMode": false,
    "outsideTurk": false,
    "platform": "turk",
    "start_time": "2026-03-02T17:04:19Z",
    "end_time": "2026-03-02T17:06:46Z",
    "total_time": 147584,
    "ip_address": "\"127.0.0.1\"",
    "version_date": "2023-10-21",
    "anon_id": "zyuhn3nlc8f15s9",
    "debug_mode": false,
    "refresh_count": 0,
    "completion_code": "3774204543-exa-2771890095-mple",
    "seed": 1772471059018,
    "redirect_url": null,
    "worker_info": {
      "assignmentId": "test",
      "hitId": "test",
      "workerId": "test",
      "turkSubmitTo": "",
      "previewMode": false,
      "outsideTurk": false,
      "platform": "turk"
    },
    "browser_events": []
  },
  {
    "rt": 1438,
    "response": 45,
    "initial_response": 45,
    "initial_response_time": 988,
    "all_responses": [
      45
    ],
    "all_response_times": [
      988
    ],
    "stimulus": "src/images/jpg/8.jpg",
    "condition": "emotional",
    "experiment_phase": "main",
    "trial_type": "image-slider-response",
    "trial_index": 12,
    "time_elapsed": 141759,
    "experiment_name": "example_experiment",
    "assignmentId": "test",
    "hitId": "test",
    "workerId": "test",
    "turkSubmitTo": "",
    "previewMode": false,
    "outsideTurk": false,
    "platform": "turk",
    "start_time": "2026-03-02T17:04:19Z",
    "end_time": "2026-03-02T17:06:46Z",
    "total_time": 147584,
    "ip_address": "\"127.0.0.1\"",
    "version_date": "2023-10-21",
    "anon_id": "zyuhn3nlc8f15s9",
    "debug_mode": false,
    "refresh_count": 0,
    "completion_code": "3774204543-exa-2771890095-mple",
    "seed": 1772471059018,
    "redirect_url": null,
    "worker_info": {
      "assignmentId": "test",
      "hitId": "test",
      "workerId": "test",
      "turkSubmitTo": "",
      "previewMode": false,
      "outsideTurk": false,
      "platform": "turk"
    },
    "browser_events": []
  },
  {
    "rt": 1465,
    "response": 47,
    "initial_response": 47,
    "initial_response_time": 610,
    "all_responses": [
      47
    ],
    "all_response_times": [
      610
    ],
    "stimulus": "src/images/jpg/9.jpg",
    "condition": "emotional",
    "experiment_phase": "main",
    "trial_type": "image-slider-response",
    "trial_index": 13,
    "time_elapsed": 143326,
    "experiment_name": "example_experiment",
    "assignmentId": "test",
    "hitId": "test",
    "workerId": "test",
    "turkSubmitTo": "",
    "previewMode": false,
    "outsideTurk": false,
    "platform": "turk",
    "start_time": "2026-03-02T17:04:19Z",
    "end_time": "2026-03-02T17:06:46Z",
    "total_time": 147584,
    "ip_address": "\"127.0.0.1\"",
    "version_date": "2023-10-21",
    "anon_id": "zyuhn3nlc8f15s9",
    "debug_mode": false,
    "refresh_count": 0,
    "completion_code": "3774204543-exa-2771890095-mple",
    "seed": 1772471059018,
    "redirect_url": null,
    "worker_info": {
      "assignmentId": "test",
      "hitId": "test",
      "workerId": "test",
      "turkSubmitTo": "",
      "previewMode": false,
      "outsideTurk": false,
      "platform": "turk"
    },
    "browser_events": []
  },
  {
    "rt": 1055,
    "response": 47,
    "initial_response": 47,
    "initial_response_time": 583,
    "all_responses": [
      47
    ],
    "all_response_times": [
      583
    ],
    "stimulus": "src/images/jpg/10.jpg",
    "condition": "emotional",
    "experiment_phase": "main",
    "trial_type": "image-slider-response",
    "trial_index": 14,
    "time_elapsed": 144484,
    "experiment_name": "example_experiment",
    "assignmentId": "test",
    "hitId": "test",
    "workerId": "test",
    "turkSubmitTo": "",
    "previewMode": false,
    "outsideTurk": false,
    "platform": "turk",
    "start_time": "2026-03-02T17:04:19Z",
    "end_time": "2026-03-02T17:06:46Z",
    "total_time": 147584,
    "ip_address": "\"127.0.0.1\"",
    "version_date": "2023-10-21",
    "anon_id": "zyuhn3nlc8f15s9",
    "debug_mode": false,
    "refresh_count": 0,
    "completion_code": "3774204543-exa-2771890095-mple",
    "seed": 1772471059018,
    "redirect_url": null,
    "worker_info": {
      "assignmentId": "test",
      "hitId": "test",
      "workerId": "test",
      "turkSubmitTo": "",
      "previewMode": false,
      "outsideTurk": false,
      "platform": "turk"
    },
    "browser_events": []
  },
  {
    "rt": 1847,
    "url": "src/html/debriefing.html",
    "completion_code": "3774204543-exa-2771890095-mple",
    "experiment_phase": "debriefing",
    "trial_type": "render-mustache-template",
    "trial_index": 15,
    "time_elapsed": 146444,
    "experiment_name": "example_experiment",
    "assignmentId": "test",
    "hitId": "test",
    "workerId": "test",
    "turkSubmitTo": "",
    "previewMode": false,
    "outsideTurk": false,
    "platform": "turk",
    "start_time": "2026-03-02T17:04:19Z",
    "condition": "emotional",
    "end_time": "2026-03-02T17:06:46Z",
    "total_time": 147584,
    "ip_address": "\"127.0.0.1\"",
    "version_date": "2023-10-21",
    "anon_id": "zyuhn3nlc8f15s9",
    "debug_mode": false,
    "refresh_count": 0,
    "seed": 1772471059018,
    "redirect_url": null,
    "worker_info": {
      "assignmentId": "test",
      "hitId": "test",
      "workerId": "test",
      "turkSubmitTo": "",
      "previewMode": false,
      "outsideTurk": false,
      "platform": "turk"
    },
    "browser_events": []
  },
  {
    "success": true,
    "trial_type": "fullscreen",
    "trial_index": 16,
    "time_elapsed": 147548,
    "experiment_name": "example_experiment",
    "assignmentId": "test",
    "hitId": "test",
    "workerId": "test",
    "turkSubmitTo": "",
    "previewMode": false,
    "outsideTurk": false,
    "platform": "turk",
    "start_time": "2026-03-02T17:04:19Z",
    "condition": "emotional",
    "end_time": "2026-03-02T17:06:46Z",
    "total_time": 147584,
    "ip_address": "\"127.0.0.1\"",
    "version_date": "2023-10-21",
    "anon_id": "zyuhn3nlc8f15s9",
    "debug_mode": false,
    "refresh_count": 0,
    "completion_code": "3774204543-exa-2771890095-mple",
    "seed": 1772471059018,
    "redirect_url": null,
    "worker_info": {
      "assignmentId": "test",
      "hitId": "test",
      "workerId": "test",
      "turkSubmitTo": "",
      "previewMode": false,
      "outsideTurk": false,
      "platform": "turk"
    },
    "browser_events": [
      {
        "event": "fullscreenexit",
        "time": 146563
      }
    ]
  }
]