[
  {
    "rt": 2994,
    "url": "src/html/consent.html",
    "experiment_phase": "consent",
    "refresh_count": 6,
    "trial_type": "render-mustache-template",
    "trial_index": 0,
    "time_elapsed": 3020,
    "experiment_name": "example_experiment",
    "assignmentId": "test",
    "hitId": "test",
    "workerId": "test",
    "turkSubmitTo": "",
    "previewMode": false,
    "outsideTurk": false,
    "platform": "turk",
    "start_time": "2026-03-02T02:12:36Z",
    "condition": "emotional",
    "end_time": "2026-03-02T02:13:50Z",
    "total_time": 72739,
    "ip_address": "\"127.0.0.1\"",
    "version_date": "2023-10-21",
    "anon_id": "oyl14n3onv7xwhj",
    "debug_mode": false,
    "completion_code": "8742167558-exa-3364916987-mple",
    "seed": 1772417556567,
    "redirect_url": null,
    "worker_info": {
      "assignmentId": "test",
      "hitId": "test",
      "workerId": "test",
      "turkSubmitTo": "",
      "previewMode": false,
      "outsideTurk": false,
      "platform": "turk"
    },
    "browser_events": []
  },
  {
    "rt": 45774,
    "url": "src/html/survey.html",
    "form_name": "surveyForm",
    "form_id": "#surveyForm",
    "experiment_phase": "survey",
    "form_data": "{\"whatTested\":\"aaaaa\",\"Q1\":\"Easy\",\"estimatedPerformance\":\"100\",\"strategies\":\"aaaaa\",\"interruption\":\"No, I did not interrupt the task.\",\"participatedBefore\":\"No\",\"issues\":\"no\",\"seriousness\":\"100\",\"comments\":\"\",\"age\":\"20\",\"race\":[\"East Asian\"],\"sex\":\"Male\",\"gender\":\"male\"}",
    "trial_type": "render-mustache-template",
    "trial_index": 1,
    "time_elapsed": 48941,
    "experiment_name": "example_experiment",
    "assignmentId": "test",
    "hitId": "test",
    "workerId": "test",
    "turkSubmitTo": "",
    "previewMode": false,
    "outsideTurk": false,
    "platform": "turk",
    "start_time": "2026-03-02T02:12:36Z",
    "condition": "emotional",
    "end_time": "2026-03-02T02:13:50Z",
    "total_time": 72739,
    "ip_address": "\"127.0.0.1\"",
    "version_date": "2023-10-21",
    "anon_id": "oyl14n3onv7xwhj",
    "debug_mode": false,
    "refresh_count": 6,
    "completion_code": "8742167558-exa-3364916987-mple",
    "seed": 1772417556567,
    "redirect_url": null,
    "worker_info": {
      "assignmentId": "test",
      "hitId": "test",
      "workerId": "test",
      "turkSubmitTo": "",
      "previewMode": false,
      "outsideTurk": false,
      "platform": "turk"
    },
    "browser_events": []
  },
  {
    "success": true,
    "trial_type": "fullscreen",
    "trial_index": 2,
    "time_elapsed": 50122,
    "screen_width": 1440,
    "screen_height": 900,
    "window_width": 1173,
    "window_height": 819,
    "experiment_name": "example_experiment",
    "assignmentId": "test",
    "hitId": "test",
    "workerId": "test",
    "turkSubmitTo": "",
    "previewMode": false,
    "outsideTurk": false,
    "platform": "turk",
    "start_time": "2026-03-02T02:12:36Z",
    "condition": "emotional",
    "end_time": "2026-03-02T02:13:50Z",
    "total_time": 72739,
    "ip_address": "\"127.0.0.1\"",
    "version_date": "2023-10-21",
    "anon_id": "oyl14n3onv7xwhj",
    "debug_mode": false,
    "refresh_count": 6,
    "completion_code": "8742167558-exa-3364916987-mple",
    "seed": 1772417556567,
    "redirect_url": null,
    "worker_info": {
      "assignmentId": "test",
      "hitId": "test",
      "workerId": "test",
      "turkSubmitTo": "",
      "previewMode": false,
      "outsideTurk": false,
      "platform": "turk"
    },
    "browser_events": [
      {
        "event": "fullscreenenter",
        "time": 50051
      }
    ]
  },
  {
    "rt": 2739,
    "url": "src/html/attrition.html",
    "form_name": "attritionForm",
    "form_id": "#attritionForm",
    "experiment_phase": "attrition",
    "trial_type": "render-mustache-template",
    "trial_index": 3,
    "time_elapsed": 52872,
    "instructions_viewed_count": 0,
    "experiment_name": "example_experiment",
    "assignmentId": "test",
    "hitId": "test",
    "workerId": "test",
    "turkSubmitTo": "",
    "previewMode": false,
    "outsideTurk": false,
    "platform": "turk",
    "start_time": "2026-03-02T02:12:36Z",
    "condition": "emotional",
    "end_time": "2026-03-02T02:13:50Z",
    "total_time": 72739,
    "ip_address": "\"127.0.0.1\"",
    "version_date": "2023-10-21",
    "anon_id": "oyl14n3onv7xwhj",
    "debug_mode": false,
    "refresh_count": 6,
    "completion_code": "8742167558-exa-3364916987-mple",
    "seed": 1772417556567,
    "redirect_url": null,
    "worker_info": {
      "assignmentId": "test",
      "hitId": "test",
      "workerId": "test",
      "turkSubmitTo": "",
      "previewMode": false,
      "outsideTurk": false,
      "platform": "turk"
    },
    "browser_events": []
  },
  {
    "view_history": [
      {
        "page_index": 0,
        "viewing_time": 1028.7000000029802
      }
    ],
    "rt": 1029.2000000029802,
    "trial_type": "instructions",
    "trial_index": 4,
    "time_elapsed": 54004,
    "experiment_name": "example_experiment",
    "assignmentId": "test",
    "hitId": "test",
    "workerId": "test",
    "turkSubmitTo": "",
    "previewMode": false,
    "outsideTurk": false,
    "platform": "turk",
    "start_time": "2026-03-02T02:12:36Z",
    "condition": "emotional",
    "end_time": "2026-03-02T02:13:50Z",
    "total_time": 72739,
    "ip_address": "\"127.0.0.1\"",
    "version_date": "2023-10-21",
    "anon_id": "oyl14n3onv7xwhj",
    "debug_mode": false,
    "refresh_count": 6,
    "completion_code": "8742167558-exa-3364916987-mple",
    "seed": 1772417556567,
    "redirect_url": null,
    "worker_info": {
      "assignmentId": "test",
      "hitId": "test",
      "workerId": "test",
      "turkSubmitTo": "",
      "previewMode": false,
      "outsideTurk": false,
      "platform": "turk"
    },
    "browser_events": []
  },
  {
    "rt": 1832,
    "response": 48,
    "initial_response": 48,
    "initial_response_time": 1155,
    "all_responses": [
      48
    ],
    "all_response_times": [
      1155
    ],
    "stimulus": "src/images/jpg/1.jpg",
    "condition": "emotional",
    "experiment_phase": "main",
    "trial_type": "image-slider-response",
    "trial_index": 5,
    "time_elapsed": 55941,
    "experiment_name": "example_experiment",
    "assignmentId": "test",
    "hitId": "test",
    "workerId": "test",
    "turkSubmitTo": "",
    "previewMode": false,
    "outsideTurk": false,
    "platform": "turk",
    "start_time": "2026-03-02T02:12:36Z",
    "end_time": "2026-03-02T02:13:50Z",
    "total_time": 72739,
    "ip_address": "\"127.0.0.1\"",
    "version_date": "2023-10-21",
    "anon_id": "oyl14n3onv7xwhj",
    "debug_mode": false,
    "refresh_count": 6,
    "completion_code": "8742167558-exa-3364916987-mple",
    "seed": 1772417556567,
    "redirect_url": null,
    "worker_info": {
      "assignmentId": "test",
      "hitId": "test",
      "workerId": "test",
      "turkSubmitTo": "",
      "previewMode": false,
      "outsideTurk": false,
      "platform": "turk"
    },
    "browser_events": []
  },
  {
    "rt": 1626,
    "response": 49,
    "initial_response": 49,
    "initial_response_time": 1104,
    "all_responses": [
      49
    ],
    "all_response_times": [
      1104
    ],
    "stimulus": "src/images/jpg/2.jpg",
    "condition": "emotional",
    "experiment_phase": "main",
    "trial_type": "image-slider-response",
    "trial_index": 6,
    "time_elapsed": 57670,
    "experiment_name": "example_experiment",
    "assignmentId": "test",
    "hitId": "test",
    "workerId": "test",
    "turkSubmitTo": "",
    "previewMode": false,
    "outsideTurk": false,
    "platform": "turk",
    "start_time": "2026-03-02T02:12:36Z",
    "end_time": "2026-03-02T02:13:50Z",
    "total_time": 72739,
    "ip_address": "\"127.0.0.1\"",
    "version_date": "2023-10-21",
    "anon_id": "oyl14n3onv7xwhj",
    "debug_mode": false,
    "refresh_count": 6,
    "completion_code": "8742167558-exa-3364916987-mple",
    "seed": 1772417556567,
    "redirect_url": null,
    "worker_info": {
      "assignmentId": "test",
      "hitId": "test",
      "workerId": "test",
      "turkSubmitTo": "",
      "previewMode": false,
      "outsideTurk": false,
      "platform": "turk"
    },
    "browser_events": []
  },
  {
    "rt": 1212,
    "response": 48,
    "initial_response": 48,
    "initial_response_time": 749,
    "all_responses": [
      48
    ],
    "all_response_times": [
      749
    ],
    "stimulus": "src/images/jpg/3.jpg",
    "condition": "emotional",
    "experiment_phase": "main",
    "trial_type": "image-slider-response",
    "trial_index": 7,
    "time_elapsed": 58986,
    "experiment_name": "example_experiment",
    "assignmentId": "test",
    "hitId": "test",
    "workerId": "test",
    "turkSubmitTo": "",
    "previewMode": false,
    "outsideTurk": false,
    "platform": "turk",
    "start_time": "2026-03-02T02:12:36Z",
    "end_time": "2026-03-02T02:13:50Z",
    "total_time": 72739,
    "ip_address": "\"127.0.0.1\"",
    "version_date": "2023-10-21",
    "anon_id": "oyl14n3onv7xwhj",
    "debug_mode": false,
    "refresh_count": 6,
    "completion_code": "8742167558-exa-3364916987-mple",
    "seed": 1772417556567,
    "redirect_url": null,
    "worker_info": {
      "assignmentId": "test",
      "hitId": "test",
      "workerId": "test",
      "turkSubmitTo": "",
      "previewMode": false,
      "outsideTurk": false,
      "platform": "turk"
    },
    "browser_events": []
  },
  {
    "rt": 1295,
    "response": 49,
    "initial_response": 49,
    "initial_response_time": 817,
    "all_responses": [
      49
    ],
    "all_response_times": [
      817
    ],
    "stimulus": "src/images/jpg/4.jpg",
    "condition": "emotional",
    "experiment_phase": "main",
    "trial_type": "image-slider-response",
    "trial_index": 8,
    "time_elapsed": 60383,
    "experiment_name": "example_experiment",
    "assignmentId": "test",
    "hitId": "test",
    "workerId": "test",
    "turkSubmitTo": "",
    "previewMode": false,
    "outsideTurk": false,
    "platform": "turk",
    "start_time": "2026-03-02T02:12:36Z",
    "end_time": "2026-03-02T02:13:50Z",
    "total_time": 72739,
    "ip_address": "\"127.0.0.1\"",
    "version_date": "2023-10-21",
    "anon_id": "oyl14n3onv7xwhj",
    "debug_mode": false,
    "refresh_count": 6,
    "completion_code": "8742167558-exa-3364916987-mple",
    "seed": 1772417556567,
    "redirect_url": null,
    "worker_info": {
      "assignmentId": "test",
      "hitId": "test",
      "workerId": "test",
      "turkSubmitTo": "",
      "previewMode": false,
      "outsideTurk": false,
      "platform": "turk"
    },
    "browser_events": []
  },
  {
    "rt": 1287,
    "response": 49,
    "initial_response": 49,
    "initial_response_time": 786,
    "all_responses": [
      49
    ],
    "all_response_times": [
      786
    ],
    "stimulus": "src/images/jpg/5.jpg",
    "condition": "emotional",
    "experiment_phase": "main",
    "trial_type": "image-slider-response",
    "trial_index": 9,
    "time_elapsed": 61772,
    "experiment_name": "example_experiment",
    "assignmentId": "test",
    "hitId": "test",
    "workerId": "test",
    "turkSubmitTo": "",
    "previewMode": false,
    "outsideTurk": false,
    "platform": "turk",
    "start_time": "2026-03-02T02:12:36Z",
    "end_time": "2026-03-02T02:13:50Z",
    "total_time": 72739,
    "ip_address": "\"127.0.0.1\"",
    "version_date": "2023-10-21",
    "anon_id": "oyl14n3onv7xwhj",
    "debug_mode": false,
    "refresh_count": 6,
    "completion_code": "8742167558-exa-3364916987-mple",
    "seed": 1772417556567,
    "redirect_url": null,
    "worker_info": {
      "assignmentId": "test",
      "hitId": "test",
      "workerId": "test",
      "turkSubmitTo": "",
      "previewMode": false,
      "outsideTurk": false,
      "platform": "turk"
    },
    "browser_events": []
  },
  {
    "rt": 1361,
    "response": 49,
    "initial_response": 49,
    "initial_response_time": 749,
    "all_responses": [
      49
    ],
    "all_response_times": [
      749
    ],
    "stimulus": "src/images/jpg/6.jpg",
    "condition": "emotional",
    "experiment_phase": "main",
    "trial_type": "image-slider-response",
    "trial_index": 10,
    "time_elapsed": 63237,
    "experiment_name": "example_experiment",
    "assignmentId": "test",
    "hitId": "test",
    "workerId": "test",
    "turkSubmitTo": "",
    "previewMode": false,
    "outsideTurk": false,
    "platform": "turk",
    "start_time": "2026-03-02T02:12:36Z",
    "end_time": "2026-03-02T02:13:50Z",
    "total_time": 72739,
    "ip_address": "\"127.0.0.1\"",
    "version_date": "2023-10-21",
    "anon_id": "oyl14n3onv7xwhj",
    "debug_mode": false,
    "refresh_count": 6,
    "completion_code": "8742167558-exa-3364916987-mple",
    "seed": 1772417556567,
    "redirect_url": null,
    "worker_info": {
      "assignmentId": "test",
      "hitId": "test",
      "workerId": "test",
      "turkSubmitTo": "",
      "previewMode": false,
      "outsideTurk": false,
      "platform": "turk"
    },
    "browser_events": []
  },
  {
    "rt": 1370,
    "response": 47,
    "initial_response": 47,
    "initial_response_time": 791,
    "all_responses": [
      47
    ],
    "all_response_times": [
      791
    ],
    "stimulus": "src/images/jpg/7.jpg",
    "condition": "emotional",
    "experiment_phase": "main",
    "trial_type": "image-slider-response",
    "trial_index": 11,
    "time_elapsed": 64710,
    "experiment_name": "example_experiment",
    "assignmentId": "test",
    "hitId": "test",
    "workerId": "test",
    "turkSubmitTo": "",
    "previewMode": false,
    "outsideTurk": false,
    "platform": "turk",
    "start_time": "2026-03-02T02:12:36Z",
    "end_time": "2026-03-02T02:13:50Z",
    "total_time": 72739,
    "ip_address": "\"127.0.0.1\"",
    "version_date": "2023-10-21",
    "anon_id": "oyl14n3onv7xwhj",
    "debug_mode": false,
    "refresh_count": 6,
    "completion_code": "8742167558-exa-3364916987-mple",
    "seed": 1772417556567,
    "redirect_url": null,
    "worker_info": {
      "assignmentId": "test",
      "hitId": "test",
      "workerId": "test",
      "turkSubmitTo": "",
      "previewMode": false,
      "outsideTurk": false,
      "platform": "turk"
    },
    "browser_events": []
  },
  {
    "rt": 1634,
    "response": 48,
    "initial_response": 48,
    "initial_response_time": 1188,
    "all_responses": [
      48
    ],
    "all_response_times": [
      1188
    ],
    "stimulus": "src/images/jpg/8.jpg",
    "condition": "emotional",
    "experiment_phase": "main",
    "trial_type": "image-slider-response",
    "trial_index": 12,
    "time_elapsed": 66446,
    "experiment_name": "example_experiment",
    "assignmentId": "test",
    "hitId": "test",
    "workerId": "test",
    "turkSubmitTo": "",
    "previewMode": false,
    "outsideTurk": false,
    "platform": "turk",
    "start_time": "2026-03-02T02:12:36Z",
    "end_time": "2026-03-02T02:13:50Z",
    "total_time": 72739,
    "ip_address": "\"127.0.0.1\"",
    "version_date": "2023-10-21",
    "anon_id": "oyl14n3onv7xwhj",
    "debug_mode": false,
    "refresh_count": 6,
    "completion_code": "8742167558-exa-3364916987-mple",
    "seed": 1772417556567,
    "redirect_url": null,
    "worker_info": {
      "assignmentId": "test",
      "hitId": "test",
      "workerId": "test",
      "turkSubmitTo": "",
      "previewMode": false,
      "outsideTurk": false,
      "platform": "turk"
    },
    "browser_events": []
  },
  {
    "rt": 1404,
    "response": 48,
    "initial_response": 48,
    "initial_response_time": 850,
    "all_responses": [
      48
    ],
    "all_response_times": [
      850
    ],
    "stimulus": "src/images/jpg/9.jpg",
    "condition": "emotional",
    "experiment_phase": "main",
    "trial_type": "image-slider-response",
    "trial_index": 13,
    "time_elapsed": 67953,
    "experiment_name": "example_experiment",
    "assignmentId": "test",
    "hitId": "test",
    "workerId": "test",
    "turkSubmitTo": "",
    "previewMode": false,
    "outsideTurk": false,
    "platform": "turk",
    "start_time": "2026-03-02T02:12:36Z",
    "end_time": "2026-03-02T02:13:50Z",
    "total_time": 72739,
    "ip_address": "\"127.0.0.1\"",
    "version_date": "2023-10-21",
    "anon_id": "oyl14n3onv7xwhj",
    "debug_mode": false,
    "refresh_count": 6,
    "completion_code": "8742167558-exa-3364916987-mple",
    "seed": 1772417556567,
    "redirect_url": null,
    "worker_info": {
      "assignmentId": "test",
      "hitId": "test",
      "workerId": "test",
      "turkSubmitTo": "",
      "previewMode": false,
      "outsideTurk": false,
      "platform": "turk"
    },
    "browser_events": []
  },
  {
    "rt": 1458,
    "response": 50,
    "initial_response": 50,
    "initial_response_time": 738,
    "all_responses": [
      50,
      50
    ],
    "all_response_times": [
      738,
      749
    ],
    "stimulus": "src/images/jpg/10.jpg",
    "condition": "emotional",
    "experiment_phase": "main",
    "trial_type": "image-slider-response",
    "trial_index": 14,
    "time_elapsed": 69515,
    "experiment_name": "example_experiment",
    "assignmentId": "test",
    "hitId": "test",
    "workerId": "test",
    "turkSubmitTo": "",
    "previewMode": false,
    "outsideTurk": false,
    "platform": "turk",
    "start_time": "2026-03-02T02:12:36Z",
    "end_time": "2026-03-02T02:13:50Z",
    "total_time": 72739,
    "ip_address": "\"127.0.0.1\"",
    "version_date": "2023-10-21",
    "anon_id": "oyl14n3onv7xwhj",
    "debug_mode": false,
    "refresh_count": 6,
    "completion_code": "8742167558-exa-3364916987-mple",
    "seed": 1772417556567,
    "redirect_url": null,
    "worker_info": {
      "assignmentId": "test",
      "hitId": "test",
      "workerId": "test",
      "turkSubmitTo": "",
      "previewMode": false,
      "outsideTurk": false,
      "platform": "turk"
    },
    "browser_events": []
  },
  {
    "rt": 1985,
    "url": "src/html/debriefing.html",
    "completion_code": "8742167558-exa-3364916987-mple",
    "experiment_phase": "debriefing",
    "trial_type": "render-mustache-template",
    "trial_index": 15,
    "time_elapsed": 71615,
    "experiment_name": "example_experiment",
    "assignmentId": "test",
    "hitId": "test",
    "workerId": "test",
    "turkSubmitTo": "",
    "previewMode": false,
    "outsideTurk": false,
    "platform": "turk",
    "start_time": "2026-03-02T02:12:36Z",
    "condition": "emotional",
    "end_time": "2026-03-02T02:13:50Z",
    "total_time": 72739,
    "ip_address": "\"127.0.0.1\"",
    "version_date": "2023-10-21",
    "anon_id": "oyl14n3onv7xwhj",
    "debug_mode": false,
    "refresh_count": 6,
    "seed": 1772417556567,
    "redirect_url": null,
    "worker_info": {
      "assignmentId": "test",
      "hitId": "test",
      "workerId": "test",
      "turkSubmitTo": "",
      "previewMode": false,
      "outsideTurk": false,
      "platform": "turk"
    },
    "browser_events": []
  },
  {
    "success": true,
    "trial_type": "fullscreen",
    "trial_index": 16,
    "time_elapsed": 72719,
    "experiment_name": "example_experiment",
    "assignmentId": "test",
    "hitId": "test",
    "workerId": "test",
    "turkSubmitTo": "",
    "previewMode": false,
    "outsideTurk": false,
    "platform": "turk",
    "start_time": "2026-03-02T02:12:36Z",
    "condition": "emotional",
    "end_time": "2026-03-02T02:13:50Z",
    "total_time": 72739,
    "ip_address": "\"127.0.0.1\"",
    "version_date": "2023-10-21",
    "anon_id": "oyl14n3onv7xwhj",
    "debug_mode": false,
    "refresh_count": 6,
    "completion_code": "8742167558-exa-3364916987-mple",
    "seed": 1772417556567,
    "redirect_url": null,
    "worker_info": {
      "assignmentId": "test",
      "hitId": "test",
      "workerId": "test",
      "turkSubmitTo": "",
      "previewMode": false,
      "outsideTurk": false,
      "platform": "turk"
    },
    "browser_events": [
      {
        "event": "fullscreenexit",
        "time": 71737
      }
    ]
  }
]