[
  {
    "rt": 3305,
    "url": "src/html/consent.html",
    "experiment_phase": "consent",
    "refresh_count": 6,
    "trial_type": "render-mustache-template",
    "trial_index": 0,
    "time_elapsed": 3502,
    "experiment_name": "example_experiment",
    "assignmentId": "test",
    "hitId": "test",
    "workerId": "test",
    "turkSubmitTo": "",
    "previewMode": false,
    "outsideTurk": false,
    "platform": "turk",
    "start_time": "2026-03-02T16:31:58Z",
    "condition": "emotional",
    "end_time": "2026-03-02T16:33:15Z",
    "total_time": 77138,
    "ip_address": "\"127.0.0.1\"",
    "version_date": "2023-10-21",
    "anon_id": "h3eq4qqvam5thos",
    "debug_mode": false,
    "completion_code": "2781318424-exa-0238845322-mple",
    "seed": 1772469118625,
    "redirect_url": null,
    "worker_info": {
      "assignmentId": "test",
      "hitId": "test",
      "workerId": "test",
      "turkSubmitTo": "",
      "previewMode": false,
      "outsideTurk": false,
      "platform": "turk"
    },
    "browser_events": []
  },
  {
    "rt": 42288,
    "url": "src/html/survey.html",
    "form_name": "surveyForm",
    "form_id": "#surveyForm",
    "experiment_phase": "survey",
    "form_data": "{\"whatTested\":\"bbbbb\",\"Q1\":\"Very Easy\",\"estimatedPerformance\":\"100\",\"strategies\":\"bbbbb\",\"interruption\":\"No, I did not interrupt the task.\",\"participatedBefore\":\"No\",\"issues\":\"no\",\"seriousness\":\"100\",\"comments\":\"no\",\"age\":\"20\",\"race\":[\"East Asian\"],\"sex\":\"Male\",\"gender\":\"male\"}",
    "trial_type": "render-mustache-template",
    "trial_index": 1,
    "time_elapsed": 45938,
    "experiment_name": "example_experiment",
    "assignmentId": "test",
    "hitId": "test",
    "workerId": "test",
    "turkSubmitTo": "",
    "previewMode": false,
    "outsideTurk": false,
    "platform": "turk",
    "start_time": "2026-03-02T16:31:58Z",
    "condition": "emotional",
    "end_time": "2026-03-02T16:33:15Z",
    "total_time": 77138,
    "ip_address": "\"127.0.0.1\"",
    "version_date": "2023-10-21",
    "anon_id": "h3eq4qqvam5thos",
    "debug_mode": false,
    "refresh_count": 6,
    "completion_code": "2781318424-exa-0238845322-mple",
    "seed": 1772469118625,
    "redirect_url": null,
    "worker_info": {
      "assignmentId": "test",
      "hitId": "test",
      "workerId": "test",
      "turkSubmitTo": "",
      "previewMode": false,
      "outsideTurk": false,
      "platform": "turk"
    },
    "browser_events": []
  },
  {
    "success": true,
    "trial_type": "fullscreen",
    "trial_index": 2,
    "time_elapsed": 47199,
    "screen_width": 1440,
    "screen_height": 900,
    "window_width": 1173,
    "window_height": 819,
    "experiment_name": "example_experiment",
    "assignmentId": "test",
    "hitId": "test",
    "workerId": "test",
    "turkSubmitTo": "",
    "previewMode": false,
    "outsideTurk": false,
    "platform": "turk",
    "start_time": "2026-03-02T16:31:58Z",
    "condition": "emotional",
    "end_time": "2026-03-02T16:33:15Z",
    "total_time": 77138,
    "ip_address": "\"127.0.0.1\"",
    "version_date": "2023-10-21",
    "anon_id": "h3eq4qqvam5thos",
    "debug_mode": false,
    "refresh_count": 6,
    "completion_code": "2781318424-exa-0238845322-mple",
    "seed": 1772469118625,
    "redirect_url": null,
    "worker_info": {
      "assignmentId": "test",
      "hitId": "test",
      "workerId": "test",
      "turkSubmitTo": "",
      "previewMode": false,
      "outsideTurk": false,
      "platform": "turk"
    },
    "browser_events": [
      {
        "event": "fullscreenenter",
        "time": 47122
      }
    ]
  },
  {
    "rt": 3362,
    "url": "src/html/attrition.html",
    "form_name": "attritionForm",
    "form_id": "#attritionForm",
    "experiment_phase": "attrition",
    "trial_type": "render-mustache-template",
    "trial_index": 3,
    "time_elapsed": 50568,
    "instructions_viewed_count": 0,
    "experiment_name": "example_experiment",
    "assignmentId": "test",
    "hitId": "test",
    "workerId": "test",
    "turkSubmitTo": "",
    "previewMode": false,
    "outsideTurk": false,
    "platform": "turk",
    "start_time": "2026-03-02T16:31:58Z",
    "condition": "emotional",
    "end_time": "2026-03-02T16:33:15Z",
    "total_time": 77138,
    "ip_address": "\"127.0.0.1\"",
    "version_date": "2023-10-21",
    "anon_id": "h3eq4qqvam5thos",
    "debug_mode": false,
    "refresh_count": 6,
    "completion_code": "2781318424-exa-0238845322-mple",
    "seed": 1772469118625,
    "redirect_url": null,
    "worker_info": {
      "assignmentId": "test",
      "hitId": "test",
      "workerId": "test",
      "turkSubmitTo": "",
      "previewMode": false,
      "outsideTurk": false,
      "platform": "turk"
    },
    "browser_events": []
  },
  {
    "view_history": [
      {
        "page_index": 0,
        "viewing_time": 1175.5999999996275
      }
    ],
    "rt": 1176.699999999255,
    "trial_type": "instructions",
    "trial_index": 4,
    "time_elapsed": 51849,
    "experiment_name": "example_experiment",
    "assignmentId": "test",
    "hitId": "test",
    "workerId": "test",
    "turkSubmitTo": "",
    "previewMode": false,
    "outsideTurk": false,
    "platform": "turk",
    "start_time": "2026-03-02T16:31:58Z",
    "condition": "emotional",
    "end_time": "2026-03-02T16:33:15Z",
    "total_time": 77138,
    "ip_address": "\"127.0.0.1\"",
    "version_date": "2023-10-21",
    "anon_id": "h3eq4qqvam5thos",
    "debug_mode": false,
    "refresh_count": 6,
    "completion_code": "2781318424-exa-0238845322-mple",
    "seed": 1772469118625,
    "redirect_url": null,
    "worker_info": {
      "assignmentId": "test",
      "hitId": "test",
      "workerId": "test",
      "turkSubmitTo": "",
      "previewMode": false,
      "outsideTurk": false,
      "platform": "turk"
    },
    "browser_events": []
  },
  {
    "rt": 3140,
    "response": 100,
    "initial_response": 49,
    "initial_response_time": 1184,
    "all_responses": [
      49,
      98,
      98,
      98,
      99,
      99,
      99,
      99,
      100
    ],
    "all_response_times": [
      1184,
      1907,
      1908,
      2046,
      2061,
      2078,
      2086,
      2103,
      2119
    ],
    "stimulus": "src/images/jpg/1.jpg",
    "condition": "emotional",
    "experiment_phase": "main",
    "trial_type": "image-slider-response",
    "trial_index": 5,
    "time_elapsed": 55097,
    "experiment_name": "example_experiment",
    "assignmentId": "test",
    "hitId": "test",
    "workerId": "test",
    "turkSubmitTo": "",
    "previewMode": false,
    "outsideTurk": false,
    "platform": "turk",
    "start_time": "2026-03-02T16:31:58Z",
    "end_time": "2026-03-02T16:33:15Z",
    "total_time": 77138,
    "ip_address": "\"127.0.0.1\"",
    "version_date": "2023-10-21",
    "anon_id": "h3eq4qqvam5thos",
    "debug_mode": false,
    "refresh_count": 6,
    "completion_code": "2781318424-exa-0238845322-mple",
    "seed": 1772469118625,
    "redirect_url": null,
    "worker_info": {
      "assignmentId": "test",
      "hitId": "test",
      "workerId": "test",
      "turkSubmitTo": "",
      "previewMode": false,
      "outsideTurk": false,
      "platform": "turk"
    },
    "browser_events": []
  },
  {
    "rt": 1590,
    "response": 100,
    "initial_response": 96,
    "initial_response_time": 634,
    "all_responses": [
      96,
      96,
      96,
      96,
      97,
      98,
      100
    ],
    "all_response_times": [
      634,
      641,
      776,
      792,
      808,
      825,
      842
    ],
    "stimulus": "src/images/jpg/2.jpg",
    "condition": "emotional",
    "experiment_phase": "main",
    "trial_type": "image-slider-response",
    "trial_index": 6,
    "time_elapsed": 56790,
    "experiment_name": "example_experiment",
    "assignmentId": "test",
    "hitId": "test",
    "workerId": "test",
    "turkSubmitTo": "",
    "previewMode": false,
    "outsideTurk": false,
    "platform": "turk",
    "start_time": "2026-03-02T16:31:58Z",
    "end_time": "2026-03-02T16:33:15Z",
    "total_time": 77138,
    "ip_address": "\"127.0.0.1\"",
    "version_date": "2023-10-21",
    "anon_id": "h3eq4qqvam5thos",
    "debug_mode": false,
    "refresh_count": 6,
    "completion_code": "2781318424-exa-0238845322-mple",
    "seed": 1772469118625,
    "redirect_url": null,
    "worker_info": {
      "assignmentId": "test",
      "hitId": "test",
      "workerId": "test",
      "turkSubmitTo": "",
      "previewMode": false,
      "outsideTurk": false,
      "platform": "turk"
    },
    "browser_events": []
  },
  {
    "rt": 2020,
    "response": 100,
    "initial_response": 97,
    "initial_response_time": 743,
    "all_responses": [
      97,
      98,
      98,
      99,
      99,
      100
    ],
    "all_response_times": [
      743,
      893,
      910,
      927,
      933,
      949
    ],
    "stimulus": "src/images/jpg/3.jpg",
    "condition": "emotional",
    "experiment_phase": "main",
    "trial_type": "image-slider-response",
    "trial_index": 7,
    "time_elapsed": 58912,
    "experiment_name": "example_experiment",
    "assignmentId": "test",
    "hitId": "test",
    "workerId": "test",
    "turkSubmitTo": "",
    "previewMode": false,
    "outsideTurk": false,
    "platform": "turk",
    "start_time": "2026-03-02T16:31:58Z",
    "end_time": "2026-03-02T16:33:15Z",
    "total_time": 77138,
    "ip_address": "\"127.0.0.1\"",
    "version_date": "2023-10-21",
    "anon_id": "h3eq4qqvam5thos",
    "debug_mode": false,
    "refresh_count": 6,
    "completion_code": "2781318424-exa-0238845322-mple",
    "seed": 1772469118625,
    "redirect_url": null,
    "worker_info": {
      "assignmentId": "test",
      "hitId": "test",
      "workerId": "test",
      "turkSubmitTo": "",
      "previewMode": false,
      "outsideTurk": false,
      "platform": "turk"
    },
    "browser_events": []
  },
  {
    "rt": 2649,
    "response": 99,
    "initial_response": 100,
    "initial_response_time": 1151,
    "all_responses": [
      100,
      99,
      99,
      99
    ],
    "all_response_times": [
      1151,
      1729,
      1746,
      1769
    ],
    "stimulus": "src/images/jpg/4.jpg",
    "condition": "emotional",
    "experiment_phase": "main",
    "trial_type": "image-slider-response",
    "trial_index": 8,
    "time_elapsed": 61664,
    "experiment_name": "example_experiment",
    "assignmentId": "test",
    "hitId": "test",
    "workerId": "test",
    "turkSubmitTo": "",
    "previewMode": false,
    "outsideTurk": false,
    "platform": "turk",
    "start_time": "2026-03-02T16:31:58Z",
    "end_time": "2026-03-02T16:33:15Z",
    "total_time": 77138,
    "ip_address": "\"127.0.0.1\"",
    "version_date": "2023-10-21",
    "anon_id": "h3eq4qqvam5thos",
    "debug_mode": false,
    "refresh_count": 6,
    "completion_code": "2781318424-exa-0238845322-mple",
    "seed": 1772469118625,
    "redirect_url": null,
    "worker_info": {
      "assignmentId": "test",
      "hitId": "test",
      "workerId": "test",
      "turkSubmitTo": "",
      "previewMode": false,
      "outsideTurk": false,
      "platform": "turk"
    },
    "browser_events": []
  },
  {
    "rt": 2063,
    "response": 100,
    "initial_response": 97,
    "initial_response_time": 817,
    "all_responses": [
      97,
      97,
      98,
      98,
      99,
      99,
      100
    ],
    "all_response_times": [
      817,
      1052,
      1070,
      1086,
      1103,
      1119,
      1136
    ],
    "stimulus": "src/images/jpg/5.jpg",
    "condition": "emotional",
    "experiment_phase": "main",
    "trial_type": "image-slider-response",
    "trial_index": 9,
    "time_elapsed": 63830,
    "experiment_name": "example_experiment",
    "assignmentId": "test",
    "hitId": "test",
    "workerId": "test",
    "turkSubmitTo": "",
    "previewMode": false,
    "outsideTurk": false,
    "platform": "turk",
    "start_time": "2026-03-02T16:31:58Z",
    "end_time": "2026-03-02T16:33:15Z",
    "total_time": 77138,
    "ip_address": "\"127.0.0.1\"",
    "version_date": "2023-10-21",
    "anon_id": "h3eq4qqvam5thos",
    "debug_mode": false,
    "refresh_count": 6,
    "completion_code": "2781318424-exa-0238845322-mple",
    "seed": 1772469118625,
    "redirect_url": null,
    "worker_info": {
      "assignmentId": "test",
      "hitId": "test",
      "workerId": "test",
      "turkSubmitTo": "",
      "previewMode": false,
      "outsideTurk": false,
      "platform": "turk"
    },
    "browser_events": []
  },
  {
    "rt": 1972,
    "response": 100,
    "initial_response": 92,
    "initial_response_time": 775,
    "all_responses": [
      92,
      92,
      93,
      93,
      93,
      94,
      95,
      95,
      96,
      98,
      99,
      100
    ],
    "all_response_times": [
      775,
      994,
      1010,
      1027,
      1036,
      1053,
      1069,
      1086,
      1103,
      1119,
      1136,
      1154
    ],
    "stimulus": "src/images/jpg/6.jpg",
    "condition": "emotional",
    "experiment_phase": "main",
    "trial_type": "image-slider-response",
    "trial_index": 10,
    "time_elapsed": 65904,
    "experiment_name": "example_experiment",
    "assignmentId": "test",
    "hitId": "test",
    "workerId": "test",
    "turkSubmitTo": "",
    "previewMode": false,
    "outsideTurk": false,
    "platform": "turk",
    "start_time": "2026-03-02T16:31:58Z",
    "end_time": "2026-03-02T16:33:15Z",
    "total_time": 77138,
    "ip_address": "\"127.0.0.1\"",
    "version_date": "2023-10-21",
    "anon_id": "h3eq4qqvam5thos",
    "debug_mode": false,
    "refresh_count": 6,
    "completion_code": "2781318424-exa-0238845322-mple",
    "seed": 1772469118625,
    "redirect_url": null,
    "worker_info": {
      "assignmentId": "test",
      "hitId": "test",
      "workerId": "test",
      "turkSubmitTo": "",
      "previewMode": false,
      "outsideTurk": false,
      "platform": "turk"
    },
    "browser_events": []
  },
  {
    "rt": 1753,
    "response": 100,
    "initial_response": 96,
    "initial_response_time": 744,
    "all_responses": [
      96,
      96,
      97,
      97,
      98,
      100
    ],
    "all_response_times": [
      744,
      864,
      880,
      896,
      911,
      928
    ],
    "stimulus": "src/images/jpg/7.jpg",
    "condition": "emotional",
    "experiment_phase": "main",
    "trial_type": "image-slider-response",
    "trial_index": 11,
    "time_elapsed": 67759,
    "experiment_name": "example_experiment",
    "assignmentId": "test",
    "hitId": "test",
    "workerId": "test",
    "turkSubmitTo": "",
    "previewMode": false,
    "outsideTurk": false,
    "platform": "turk",
    "start_time": "2026-03-02T16:31:58Z",
    "end_time": "2026-03-02T16:33:15Z",
    "total_time": 77138,
    "ip_address": "\"127.0.0.1\"",
    "version_date": "2023-10-21",
    "anon_id": "h3eq4qqvam5thos",
    "debug_mode": false,
    "refresh_count": 6,
    "completion_code": "2781318424-exa-0238845322-mple",
    "seed": 1772469118625,
    "redirect_url": null,
    "worker_info": {
      "assignmentId": "test",
      "hitId": "test",
      "workerId": "test",
      "turkSubmitTo": "",
      "previewMode": false,
      "outsideTurk": false,
      "platform": "turk"
    },
    "browser_events": []
  },
  {
    "rt": 1959,
    "response": 100,
    "initial_response": 96,
    "initial_response_time": 986,
    "all_responses": [
      96,
      96,
      96,
      96,
      96,
      97,
      97,
      98,
      99,
      100
    ],
    "all_response_times": [
      986,
      988,
      1061,
      1077,
      1093,
      1104,
      1120,
      1137,
      1153,
      1170
    ],
    "stimulus": "src/images/jpg/8.jpg",
    "condition": "emotional",
    "experiment_phase": "main",
    "trial_type": "image-slider-response",
    "trial_index": 12,
    "time_elapsed": 69821,
    "experiment_name": "example_experiment",
    "assignmentId": "test",
    "hitId": "test",
    "workerId": "test",
    "turkSubmitTo": "",
    "previewMode": false,
    "outsideTurk": false,
    "platform": "turk",
    "start_time": "2026-03-02T16:31:58Z",
    "end_time": "2026-03-02T16:33:15Z",
    "total_time": 77138,
    "ip_address": "\"127.0.0.1\"",
    "version_date": "2023-10-21",
    "anon_id": "h3eq4qqvam5thos",
    "debug_mode": false,
    "refresh_count": 6,
    "completion_code": "2781318424-exa-0238845322-mple",
    "seed": 1772469118625,
    "redirect_url": null,
    "worker_info": {
      "assignmentId": "test",
      "hitId": "test",
      "workerId": "test",
      "turkSubmitTo": "",
      "previewMode": false,
      "outsideTurk": false,
      "platform": "turk"
    },
    "browser_events": []
  },
  {
    "rt": 1760,
    "response": 100,
    "initial_response": 98,
    "initial_response_time": 820,
    "all_responses": [
      98,
      98,
      99,
      99,
      100
    ],
    "all_response_times": [
      820,
      925,
      945,
      957,
      974
    ],
    "stimulus": "src/images/jpg/9.jpg",
    "condition": "emotional",
    "experiment_phase": "main",
    "trial_type": "image-slider-response",
    "trial_index": 13,
    "time_elapsed": 71683,
    "experiment_name": "example_experiment",
    "assignmentId": "test",
    "hitId": "test",
    "workerId": "test",
    "turkSubmitTo": "",
    "previewMode": false,
    "outsideTurk": false,
    "platform": "turk",
    "start_time": "2026-03-02T16:31:58Z",
    "end_time": "2026-03-02T16:33:15Z",
    "total_time": 77138,
    "ip_address": "\"127.0.0.1\"",
    "version_date": "2023-10-21",
    "anon_id": "h3eq4qqvam5thos",
    "debug_mode": false,
    "refresh_count": 6,
    "completion_code": "2781318424-exa-0238845322-mple",
    "seed": 1772469118625,
    "redirect_url": null,
    "worker_info": {
      "assignmentId": "test",
      "hitId": "test",
      "workerId": "test",
      "turkSubmitTo": "",
      "previewMode": false,
      "outsideTurk": false,
      "platform": "turk"
    },
    "browser_events": []
  },
  {
    "rt": 1975,
    "response": 100,
    "initial_response": 99,
    "initial_response_time": 919,
    "all_responses": [
      99,
      99,
      99,
      100
    ],
    "all_response_times": [
      919,
      921,
      1025,
      1043
    ],
    "stimulus": "src/images/jpg/10.jpg",
    "condition": "emotional",
    "experiment_phase": "main",
    "trial_type": "image-slider-response",
    "trial_index": 14,
    "time_elapsed": 73762,
    "experiment_name": "example_experiment",
    "assignmentId": "test",
    "hitId": "test",
    "workerId": "test",
    "turkSubmitTo": "",
    "previewMode": false,
    "outsideTurk": false,
    "platform": "turk",
    "start_time": "2026-03-02T16:31:58Z",
    "end_time": "2026-03-02T16:33:15Z",
    "total_time": 77138,
    "ip_address": "\"127.0.0.1\"",
    "version_date": "2023-10-21",
    "anon_id": "h3eq4qqvam5thos",
    "debug_mode": false,
    "refresh_count": 6,
    "completion_code": "2781318424-exa-0238845322-mple",
    "seed": 1772469118625,
    "redirect_url": null,
    "worker_info": {
      "assignmentId": "test",
      "hitId": "test",
      "workerId": "test",
      "turkSubmitTo": "",
      "previewMode": false,
      "outsideTurk": false,
      "platform": "turk"
    },
    "browser_events": []
  },
  {
    "rt": 1798,
    "url": "src/html/debriefing.html",
    "completion_code": "2781318424-exa-0238845322-mple",
    "experiment_phase": "debriefing",
    "trial_type": "render-mustache-template",
    "trial_index": 15,
    "time_elapsed": 75671,
    "experiment_name": "example_experiment",
    "assignmentId": "test",
    "hitId": "test",
    "workerId": "test",
    "turkSubmitTo": "",
    "previewMode": false,
    "outsideTurk": false,
    "platform": "turk",
    "start_time": "2026-03-02T16:31:58Z",
    "condition": "emotional",
    "end_time": "2026-03-02T16:33:15Z",
    "total_time": 77138,
    "ip_address": "\"127.0.0.1\"",
    "version_date": "2023-10-21",
    "anon_id": "h3eq4qqvam5thos",
    "debug_mode": false,
    "refresh_count": 6,
    "seed": 1772469118625,
    "redirect_url": null,
    "worker_info": {
      "assignmentId": "test",
      "hitId": "test",
      "workerId": "test",
      "turkSubmitTo": "",
      "previewMode": false,
      "outsideTurk": false,
      "platform": "turk"
    },
    "browser_events": []
  },
  {
    "success": true,
    "trial_type": "fullscreen",
    "trial_index": 16,
    "time_elapsed": 76777,
    "experiment_name": "example_experiment",
    "assignmentId": "test",
    "hitId": "test",
    "workerId": "test",
    "turkSubmitTo": "",
    "previewMode": false,
    "outsideTurk": false,
    "platform": "turk",
    "start_time": "2026-03-02T16:31:58Z",
    "condition": "emotional",
    "end_time": "2026-03-02T16:33:15Z",
    "total_time": 77138,
    "ip_address": "\"127.0.0.1\"",
    "version_date": "2023-10-21",
    "anon_id": "h3eq4qqvam5thos",
    "debug_mode": false,
    "refresh_count": 6,
    "completion_code": "2781318424-exa-0238845322-mple",
    "seed": 1772469118625,
    "redirect_url": null,
    "worker_info": {
      "assignmentId": "test",
      "hitId": "test",
      "workerId": "test",
      "turkSubmitTo": "",
      "previewMode": false,
      "outsideTurk": false,
      "platform": "turk"
    },
    "browser_events": [
      {
        "event": "fullscreenexit",
        "time": 75811
      }
    ]
  }
]