[
  {
    "rt": 3979,
    "url": "src/html/consent.html",
    "experiment_phase": "consent",
    "refresh_count": 0,
    "trial_type": "render-mustache-template",
    "trial_index": 0,
    "time_elapsed": 4000,
    "experiment_name": "example_experiment",
    "assignmentId": "test",
    "hitId": "test",
    "workerId": "test",
    "turkSubmitTo": "",
    "previewMode": false,
    "outsideTurk": false,
    "platform": "turk",
    "start_time": "2026-02-22T15:42:40Z",
    "condition": "emotional",
    "end_time": "2026-02-22T15:43:39Z",
    "total_time": 59399,
    "ip_address": "\"127.0.0.1\"",
    "version_date": "2023-10-21",
    "anon_id": "pwpg5spslyqhjun",
    "debug_mode": false,
    "completion_code": "8550469462-exa-4544145623-mple",
    "seed": 1771774960449,
    "redirect_url": null,
    "worker_info": {
      "assignmentId": "test",
      "hitId": "test",
      "workerId": "test",
      "turkSubmitTo": "",
      "previewMode": false,
      "outsideTurk": false,
      "platform": "turk"
    },
    "browser_events": []
  },
  {
    "success": true,
    "trial_type": "fullscreen",
    "trial_index": 1,
    "time_elapsed": 5193,
    "screen_width": 1440,
    "screen_height": 900,
    "window_width": 968,
    "window_height": 819,
    "experiment_name": "example_experiment",
    "assignmentId": "test",
    "hitId": "test",
    "workerId": "test",
    "turkSubmitTo": "",
    "previewMode": false,
    "outsideTurk": false,
    "platform": "turk",
    "start_time": "2026-02-22T15:42:40Z",
    "condition": "emotional",
    "end_time": "2026-02-22T15:43:39Z",
    "total_time": 59399,
    "ip_address": "\"127.0.0.1\"",
    "version_date": "2023-10-21",
    "anon_id": "pwpg5spslyqhjun",
    "debug_mode": false,
    "refresh_count": 0,
    "completion_code": "8550469462-exa-4544145623-mple",
    "seed": 1771774960449,
    "redirect_url": null,
    "worker_info": {
      "assignmentId": "test",
      "hitId": "test",
      "workerId": "test",
      "turkSubmitTo": "",
      "previewMode": false,
      "outsideTurk": false,
      "platform": "turk"
    },
    "browser_events": [
      {
        "event": "fullscreenenter",
        "time": 5102
      }
    ]
  },
  {
    "rt": 3435,
    "url": "src/html/attrition.html",
    "form_name": "attritionForm",
    "form_id": "#attritionForm",
    "experiment_phase": "attrition",
    "trial_type": "render-mustache-template",
    "trial_index": 2,
    "time_elapsed": 8633,
    "instructions_viewed_count": 0,
    "experiment_name": "example_experiment",
    "assignmentId": "test",
    "hitId": "test",
    "workerId": "test",
    "turkSubmitTo": "",
    "previewMode": false,
    "outsideTurk": false,
    "platform": "turk",
    "start_time": "2026-02-22T15:42:40Z",
    "condition": "emotional",
    "end_time": "2026-02-22T15:43:39Z",
    "total_time": 59399,
    "ip_address": "\"127.0.0.1\"",
    "version_date": "2023-10-21",
    "anon_id": "pwpg5spslyqhjun",
    "debug_mode": false,
    "refresh_count": 0,
    "completion_code": "8550469462-exa-4544145623-mple",
    "seed": 1771774960449,
    "redirect_url": null,
    "worker_info": {
      "assignmentId": "test",
      "hitId": "test",
      "workerId": "test",
      "turkSubmitTo": "",
      "previewMode": false,
      "outsideTurk": false,
      "platform": "turk"
    },
    "browser_events": []
  },
  {
    "view_history": [
      {
        "page_index": 0,
        "viewing_time": 1726.6000000089407
      }
    ],
    "rt": 1727.4000000059605,
    "trial_type": "instructions",
    "trial_index": 3,
    "time_elapsed": 10465,
    "experiment_name": "example_experiment",
    "assignmentId": "test",
    "hitId": "test",
    "workerId": "test",
    "turkSubmitTo": "",
    "previewMode": false,
    "outsideTurk": false,
    "platform": "turk",
    "start_time": "2026-02-22T15:42:40Z",
    "condition": "emotional",
    "end_time": "2026-02-22T15:43:39Z",
    "total_time": 59399,
    "ip_address": "\"127.0.0.1\"",
    "version_date": "2023-10-21",
    "anon_id": "pwpg5spslyqhjun",
    "debug_mode": false,
    "refresh_count": 0,
    "completion_code": "8550469462-exa-4544145623-mple",
    "seed": 1771774960449,
    "redirect_url": null,
    "worker_info": {
      "assignmentId": "test",
      "hitId": "test",
      "workerId": "test",
      "turkSubmitTo": "",
      "previewMode": false,
      "outsideTurk": false,
      "platform": "turk"
    },
    "browser_events": []
  },
  {
    "rt": 2909,
    "response": 95,
    "initial_response": 95,
    "initial_response_time": 2228,
    "all_responses": [
      95,
      95
    ],
    "all_response_times": [
      2228,
      2242
    ],
    "stimulus": "src/images/jpg/1.jpg",
    "condition": "emotional",
    "experiment_phase": "main",
    "trial_type": "image-slider-response",
    "trial_index": 4,
    "time_elapsed": 13479,
    "experiment_name": "example_experiment",
    "assignmentId": "test",
    "hitId": "test",
    "workerId": "test",
    "turkSubmitTo": "",
    "previewMode": false,
    "outsideTurk": false,
    "platform": "turk",
    "start_time": "2026-02-22T15:42:40Z",
    "end_time": "2026-02-22T15:43:39Z",
    "total_time": 59399,
    "ip_address": "\"127.0.0.1\"",
    "version_date": "2023-10-21",
    "anon_id": "pwpg5spslyqhjun",
    "debug_mode": false,
    "refresh_count": 0,
    "completion_code": "8550469462-exa-4544145623-mple",
    "seed": 1771774960449,
    "redirect_url": null,
    "worker_info": {
      "assignmentId": "test",
      "hitId": "test",
      "workerId": "test",
      "turkSubmitTo": "",
      "previewMode": false,
      "outsideTurk": false,
      "platform": "turk"
    },
    "browser_events": []
  },
  {
    "rt": 1462,
    "response": 89,
    "initial_response": 89,
    "initial_response_time": 822,
    "all_responses": [
      89
    ],
    "all_response_times": [
      822
    ],
    "stimulus": "src/images/jpg/2.jpg",
    "condition": "emotional",
    "experiment_phase": "main",
    "trial_type": "image-slider-response",
    "trial_index": 5,
    "time_elapsed": 15044,
    "experiment_name": "example_experiment",
    "assignmentId": "test",
    "hitId": "test",
    "workerId": "test",
    "turkSubmitTo": "",
    "previewMode": false,
    "outsideTurk": false,
    "platform": "turk",
    "start_time": "2026-02-22T15:42:40Z",
    "end_time": "2026-02-22T15:43:39Z",
    "total_time": 59399,
    "ip_address": "\"127.0.0.1\"",
    "version_date": "2023-10-21",
    "anon_id": "pwpg5spslyqhjun",
    "debug_mode": false,
    "refresh_count": 0,
    "completion_code": "8550469462-exa-4544145623-mple",
    "seed": 1771774960449,
    "redirect_url": null,
    "worker_info": {
      "assignmentId": "test",
      "hitId": "test",
      "workerId": "test",
      "turkSubmitTo": "",
      "previewMode": false,
      "outsideTurk": false,
      "platform": "turk"
    },
    "browser_events": []
  },
  {
    "rt": 1634,
    "response": 96,
    "initial_response": 96,
    "initial_response_time": 1057,
    "all_responses": [
      96
    ],
    "all_response_times": [
      1057
    ],
    "stimulus": "src/images/jpg/3.jpg",
    "condition": "emotional",
    "experiment_phase": "main",
    "trial_type": "image-slider-response",
    "trial_index": 6,
    "time_elapsed": 16780,
    "experiment_name": "example_experiment",
    "assignmentId": "test",
    "hitId": "test",
    "workerId": "test",
    "turkSubmitTo": "",
    "previewMode": false,
    "outsideTurk": false,
    "platform": "turk",
    "start_time": "2026-02-22T15:42:40Z",
    "end_time": "2026-02-22T15:43:39Z",
    "total_time": 59399,
    "ip_address": "\"127.0.0.1\"",
    "version_date": "2023-10-21",
    "anon_id": "pwpg5spslyqhjun",
    "debug_mode": false,
    "refresh_count": 0,
    "completion_code": "8550469462-exa-4544145623-mple",
    "seed": 1771774960449,
    "redirect_url": null,
    "worker_info": {
      "assignmentId": "test",
      "hitId": "test",
      "workerId": "test",
      "turkSubmitTo": "",
      "previewMode": false,
      "outsideTurk": false,
      "platform": "turk"
    },
    "browser_events": []
  },
  {
    "rt": 1660,
    "response": 98,
    "initial_response": 96,
    "initial_response_time": 733,
    "all_responses": [
      96,
      96,
      96,
      97,
      97,
      97,
      97,
      98,
      98,
      98,
      98,
      98,
      98
    ],
    "all_response_times": [
      733,
      740,
      898,
      914,
      931,
      940,
      957,
      973,
      991,
      1007,
      1023,
      1074,
      1131
    ],
    "stimulus": "src/images/jpg/4.jpg",
    "condition": "emotional",
    "experiment_phase": "main",
    "trial_type": "image-slider-response",
    "trial_index": 7,
    "time_elapsed": 18545,
    "experiment_name": "example_experiment",
    "assignmentId": "test",
    "hitId": "test",
    "workerId": "test",
    "turkSubmitTo": "",
    "previewMode": false,
    "outsideTurk": false,
    "platform": "turk",
    "start_time": "2026-02-22T15:42:40Z",
    "end_time": "2026-02-22T15:43:39Z",
    "total_time": 59399,
    "ip_address": "\"127.0.0.1\"",
    "version_date": "2023-10-21",
    "anon_id": "pwpg5spslyqhjun",
    "debug_mode": false,
    "refresh_count": 0,
    "completion_code": "8550469462-exa-4544145623-mple",
    "seed": 1771774960449,
    "redirect_url": null,
    "worker_info": {
      "assignmentId": "test",
      "hitId": "test",
      "workerId": "test",
      "turkSubmitTo": "",
      "previewMode": false,
      "outsideTurk": false,
      "platform": "turk"
    },
    "browser_events": []
  },
  {
    "rt": 2187,
    "response": 100,
    "initial_response": 100,
    "initial_response_time": 1018,
    "all_responses": [
      100
    ],
    "all_response_times": [
      1018
    ],
    "stimulus": "src/images/jpg/5.jpg",
    "condition": "emotional",
    "experiment_phase": "main",
    "trial_type": "image-slider-response",
    "trial_index": 8,
    "time_elapsed": 20837,
    "experiment_name": "example_experiment",
    "assignmentId": "test",
    "hitId": "test",
    "workerId": "test",
    "turkSubmitTo": "",
    "previewMode": false,
    "outsideTurk": false,
    "platform": "turk",
    "start_time": "2026-02-22T15:42:40Z",
    "end_time": "2026-02-22T15:43:39Z",
    "total_time": 59399,
    "ip_address": "\"127.0.0.1\"",
    "version_date": "2023-10-21",
    "anon_id": "pwpg5spslyqhjun",
    "debug_mode": false,
    "refresh_count": 0,
    "completion_code": "8550469462-exa-4544145623-mple",
    "seed": 1771774960449,
    "redirect_url": null,
    "worker_info": {
      "assignmentId": "test",
      "hitId": "test",
      "workerId": "test",
      "turkSubmitTo": "",
      "previewMode": false,
      "outsideTurk": false,
      "platform": "turk"
    },
    "browser_events": []
  },
  {
    "rt": 1702,
    "response": 99,
    "initial_response": 99,
    "initial_response_time": 750,
    "all_responses": [
      99,
      99
    ],
    "all_response_times": [
      750,
      752
    ],
    "stimulus": "src/images/jpg/6.jpg",
    "condition": "emotional",
    "experiment_phase": "main",
    "trial_type": "image-slider-response",
    "trial_index": 9,
    "time_elapsed": 22643,
    "experiment_name": "example_experiment",
    "assignmentId": "test",
    "hitId": "test",
    "workerId": "test",
    "turkSubmitTo": "",
    "previewMode": false,
    "outsideTurk": false,
    "platform": "turk",
    "start_time": "2026-02-22T15:42:40Z",
    "end_time": "2026-02-22T15:43:39Z",
    "total_time": 59399,
    "ip_address": "\"127.0.0.1\"",
    "version_date": "2023-10-21",
    "anon_id": "pwpg5spslyqhjun",
    "debug_mode": false,
    "refresh_count": 0,
    "completion_code": "8550469462-exa-4544145623-mple",
    "seed": 1771774960449,
    "redirect_url": null,
    "worker_info": {
      "assignmentId": "test",
      "hitId": "test",
      "workerId": "test",
      "turkSubmitTo": "",
      "previewMode": false,
      "outsideTurk": false,
      "platform": "turk"
    },
    "browser_events": []
  },
  {
    "rt": 1260,
    "response": 93,
    "initial_response": 93,
    "initial_response_time": 648,
    "all_responses": [
      93,
      93
    ],
    "all_response_times": [
      648,
      651
    ],
    "stimulus": "src/images/jpg/7.jpg",
    "condition": "emotional",
    "experiment_phase": "main",
    "trial_type": "image-slider-response",
    "trial_index": 10,
    "time_elapsed": 24007,
    "experiment_name": "example_experiment",
    "assignmentId": "test",
    "hitId": "test",
    "workerId": "test",
    "turkSubmitTo": "",
    "previewMode": false,
    "outsideTurk": false,
    "platform": "turk",
    "start_time": "2026-02-22T15:42:40Z",
    "end_time": "2026-02-22T15:43:39Z",
    "total_time": 59399,
    "ip_address": "\"127.0.0.1\"",
    "version_date": "2023-10-21",
    "anon_id": "pwpg5spslyqhjun",
    "debug_mode": false,
    "refresh_count": 0,
    "completion_code": "8550469462-exa-4544145623-mple",
    "seed": 1771774960449,
    "redirect_url": null,
    "worker_info": {
      "assignmentId": "test",
      "hitId": "test",
      "workerId": "test",
      "turkSubmitTo": "",
      "previewMode": false,
      "outsideTurk": false,
      "platform": "turk"
    },
    "browser_events": []
  },
  {
    "rt": 1398,
    "response": 94,
    "initial_response": 94,
    "initial_response_time": 830,
    "all_responses": [
      94,
      94
    ],
    "all_response_times": [
      830,
      832
    ],
    "stimulus": "src/images/jpg/8.jpg",
    "condition": "emotional",
    "experiment_phase": "main",
    "trial_type": "image-slider-response",
    "trial_index": 11,
    "time_elapsed": 25509,
    "experiment_name": "example_experiment",
    "assignmentId": "test",
    "hitId": "test",
    "workerId": "test",
    "turkSubmitTo": "",
    "previewMode": false,
    "outsideTurk": false,
    "platform": "turk",
    "start_time": "2026-02-22T15:42:40Z",
    "end_time": "2026-02-22T15:43:39Z",
    "total_time": 59399,
    "ip_address": "\"127.0.0.1\"",
    "version_date": "2023-10-21",
    "anon_id": "pwpg5spslyqhjun",
    "debug_mode": false,
    "refresh_count": 0,
    "completion_code": "8550469462-exa-4544145623-mple",
    "seed": 1771774960449,
    "redirect_url": null,
    "worker_info": {
      "assignmentId": "test",
      "hitId": "test",
      "workerId": "test",
      "turkSubmitTo": "",
      "previewMode": false,
      "outsideTurk": false,
      "platform": "turk"
    },
    "browser_events": []
  },
  {
    "rt": 1374,
    "response": 97,
    "initial_response": 97,
    "initial_response_time": 767,
    "all_responses": [
      97
    ],
    "all_response_times": [
      767
    ],
    "stimulus": "src/images/jpg/9.jpg",
    "condition": "emotional",
    "experiment_phase": "main",
    "trial_type": "image-slider-response",
    "trial_index": 12,
    "time_elapsed": 26985,
    "experiment_name": "example_experiment",
    "assignmentId": "test",
    "hitId": "test",
    "workerId": "test",
    "turkSubmitTo": "",
    "previewMode": false,
    "outsideTurk": false,
    "platform": "turk",
    "start_time": "2026-02-22T15:42:40Z",
    "end_time": "2026-02-22T15:43:39Z",
    "total_time": 59399,
    "ip_address": "\"127.0.0.1\"",
    "version_date": "2023-10-21",
    "anon_id": "pwpg5spslyqhjun",
    "debug_mode": false,
    "refresh_count": 0,
    "completion_code": "8550469462-exa-4544145623-mple",
    "seed": 1771774960449,
    "redirect_url": null,
    "worker_info": {
      "assignmentId": "test",
      "hitId": "test",
      "workerId": "test",
      "turkSubmitTo": "",
      "previewMode": false,
      "outsideTurk": false,
      "platform": "turk"
    },
    "browser_events": []
  },
  {
    "rt": 1401,
    "response": 99,
    "initial_response": 99,
    "initial_response_time": 758,
    "all_responses": [
      99
    ],
    "all_response_times": [
      758
    ],
    "stimulus": "src/images/jpg/10.jpg",
    "condition": "emotional",
    "experiment_phase": "main",
    "trial_type": "image-slider-response",
    "trial_index": 13,
    "time_elapsed": 28489,
    "experiment_name": "example_experiment",
    "assignmentId": "test",
    "hitId": "test",
    "workerId": "test",
    "turkSubmitTo": "",
    "previewMode": false,
    "outsideTurk": false,
    "platform": "turk",
    "start_time": "2026-02-22T15:42:40Z",
    "end_time": "2026-02-22T15:43:39Z",
    "total_time": 59399,
    "ip_address": "\"127.0.0.1\"",
    "version_date": "2023-10-21",
    "anon_id": "pwpg5spslyqhjun",
    "debug_mode": false,
    "refresh_count": 0,
    "completion_code": "8550469462-exa-4544145623-mple",
    "seed": 1771774960449,
    "redirect_url": null,
    "worker_info": {
      "assignmentId": "test",
      "hitId": "test",
      "workerId": "test",
      "turkSubmitTo": "",
      "previewMode": false,
      "outsideTurk": false,
      "platform": "turk"
    },
    "browser_events": []
  },
  {
    "rt": 25365,
    "url": "src/html/survey.html",
    "form_name": "surveyForm",
    "form_id": "#surveyForm",
    "experiment_phase": "survey",
    "form_data": "{\"whatTested\":\"aaaaa\",\"estimatedPerformance\":\"100\",\"strategies\":\"aaaaa\",\"interruption\":\"No, I did not interrupt the task.\",\"participatedBefore\":\"No\",\"issues\":\"no\",\"seriousness\":\"100\",\"comments\":\"\",\"age\":\"20\",\"race\":[\"East Asian\"],\"sex\":\"Male\",\"gender\":\"male\"}",
    "trial_type": "render-mustache-template",
    "trial_index": 14,
    "time_elapsed": 53970,
    "experiment_name": "example_experiment",
    "assignmentId": "test",
    "hitId": "test",
    "workerId": "test",
    "turkSubmitTo": "",
    "previewMode": false,
    "outsideTurk": false,
    "platform": "turk",
    "start_time": "2026-02-22T15:42:40Z",
    "condition": "emotional",
    "end_time": "2026-02-22T15:43:39Z",
    "total_time": 59399,
    "ip_address": "\"127.0.0.1\"",
    "version_date": "2023-10-21",
    "anon_id": "pwpg5spslyqhjun",
    "debug_mode": false,
    "refresh_count": 0,
    "completion_code": "8550469462-exa-4544145623-mple",
    "seed": 1771774960449,
    "redirect_url": null,
    "worker_info": {
      "assignmentId": "test",
      "hitId": "test",
      "workerId": "test",
      "turkSubmitTo": "",
      "previewMode": false,
      "outsideTurk": false,
      "platform": "turk"
    },
    "browser_events": []
  },
  {
    "rt": 4197,
    "url": "src/html/debriefing.html",
    "completion_code": "8550469462-exa-4544145623-mple",
    "experiment_phase": "debriefing",
    "trial_type": "render-mustache-template",
    "trial_index": 15,
    "time_elapsed": 58280,
    "experiment_name": "example_experiment",
    "assignmentId": "test",
    "hitId": "test",
    "workerId": "test",
    "turkSubmitTo": "",
    "previewMode": false,
    "outsideTurk": false,
    "platform": "turk",
    "start_time": "2026-02-22T15:42:40Z",
    "condition": "emotional",
    "end_time": "2026-02-22T15:43:39Z",
    "total_time": 59399,
    "ip_address": "\"127.0.0.1\"",
    "version_date": "2023-10-21",
    "anon_id": "pwpg5spslyqhjun",
    "debug_mode": false,
    "refresh_count": 0,
    "seed": 1771774960449,
    "redirect_url": null,
    "worker_info": {
      "assignmentId": "test",
      "hitId": "test",
      "workerId": "test",
      "turkSubmitTo": "",
      "previewMode": false,
      "outsideTurk": false,
      "platform": "turk"
    },
    "browser_events": []
  },
  {
    "success": true,
    "trial_type": "fullscreen",
    "trial_index": 16,
    "time_elapsed": 59383,
    "experiment_name": "example_experiment",
    "assignmentId": "test",
    "hitId": "test",
    "workerId": "test",
    "turkSubmitTo": "",
    "previewMode": false,
    "outsideTurk": false,
    "platform": "turk",
    "start_time": "2026-02-22T15:42:40Z",
    "condition": "emotional",
    "end_time": "2026-02-22T15:43:39Z",
    "total_time": 59399,
    "ip_address": "\"127.0.0.1\"",
    "version_date": "2023-10-21",
    "anon_id": "pwpg5spslyqhjun",
    "debug_mode": false,
    "refresh_count": 0,
    "completion_code": "8550469462-exa-4544145623-mple",
    "seed": 1771774960449,
    "redirect_url": null,
    "worker_info": {
      "assignmentId": "test",
      "hitId": "test",
      "workerId": "test",
      "turkSubmitTo": "",
      "previewMode": false,
      "outsideTurk": false,
      "platform": "turk"
    },
    "browser_events": [
      {
        "event": "fullscreenexit",
        "time": 58409
      }
    ]
  }
]