[
  {
    "rt": 3491,
    "url": "src/html/consent.html",
    "experiment_phase": "consent",
    "refresh_count": 3,
    "trial_type": "render-mustache-template",
    "trial_index": 0,
    "time_elapsed": 3729,
    "experiment_name": "example_experiment",
    "assignmentId": "test",
    "hitId": "test",
    "workerId": "test",
    "turkSubmitTo": "",
    "previewMode": false,
    "outsideTurk": false,
    "platform": "turk",
    "start_time": "2026-02-28T18:54:16Z",
    "condition": "emotional",
    "end_time": "2026-02-28T18:56:06Z",
    "total_time": 109100,
    "ip_address": "\"127.0.0.1\"",
    "version_date": "2023-10-21",
    "anon_id": "d7l6131sz9o4mrk",
    "debug_mode": false,
    "completion_code": "1894769906-exa-6424662969-mple",
    "seed": 1772304856868,
    "redirect_url": null,
    "worker_info": {
      "assignmentId": "test",
      "hitId": "test",
      "workerId": "test",
      "turkSubmitTo": "",
      "previewMode": false,
      "outsideTurk": false,
      "platform": "turk"
    },
    "browser_events": []
  },
  {
    "rt": 74724,
    "url": "src/html/survey.html",
    "form_name": "surveyForm",
    "form_id": "#surveyForm",
    "experiment_phase": "survey",
    "form_data": "{\"whatTested\":\"aaaaa\",\"estimatedPerformance\":\"100\",\"strategies\":\"aaaaa\",\"interruption\":\"No, I did not interrupt the task.\",\"participatedBefore\":\"No\",\"issues\":\"no\",\"seriousness\":\"100\",\"comments\":\"\",\"age\":\"20\",\"race\":[\"East Asian\"],\"sex\":\"Male\",\"gender\":\"male\"}",
    "trial_type": "render-mustache-template",
    "trial_index": 1,
    "time_elapsed": 78673,
    "experiment_name": "example_experiment",
    "assignmentId": "test",
    "hitId": "test",
    "workerId": "test",
    "turkSubmitTo": "",
    "previewMode": false,
    "outsideTurk": false,
    "platform": "turk",
    "start_time": "2026-02-28T18:54:16Z",
    "condition": "emotional",
    "end_time": "2026-02-28T18:56:06Z",
    "total_time": 109100,
    "ip_address": "\"127.0.0.1\"",
    "version_date": "2023-10-21",
    "anon_id": "d7l6131sz9o4mrk",
    "debug_mode": false,
    "refresh_count": 3,
    "completion_code": "1894769906-exa-6424662969-mple",
    "seed": 1772304856868,
    "redirect_url": null,
    "worker_info": {
      "assignmentId": "test",
      "hitId": "test",
      "workerId": "test",
      "turkSubmitTo": "",
      "previewMode": false,
      "outsideTurk": false,
      "platform": "turk"
    },
    "browser_events": [
      {
        "event": "blur",
        "time": 6894
      },
      {
        "event": "focus",
        "time": 10526
      },
      {
        "event": "blur",
        "time": 10988
      },
      {
        "event": "focus",
        "time": 30131
      },
      {
        "event": "blur",
        "time": 34921
      },
      {
        "event": "focus",
        "time": 40860
      }
    ]
  },
  {
    "success": true,
    "trial_type": "fullscreen",
    "trial_index": 2,
    "time_elapsed": 80063,
    "screen_width": 1440,
    "screen_height": 900,
    "window_width": 1112,
    "window_height": 678,
    "experiment_name": "example_experiment",
    "assignmentId": "test",
    "hitId": "test",
    "workerId": "test",
    "turkSubmitTo": "",
    "previewMode": false,
    "outsideTurk": false,
    "platform": "turk",
    "start_time": "2026-02-28T18:54:16Z",
    "condition": "emotional",
    "end_time": "2026-02-28T18:56:06Z",
    "total_time": 109100,
    "ip_address": "\"127.0.0.1\"",
    "version_date": "2023-10-21",
    "anon_id": "d7l6131sz9o4mrk",
    "debug_mode": false,
    "refresh_count": 3,
    "completion_code": "1894769906-exa-6424662969-mple",
    "seed": 1772304856868,
    "redirect_url": null,
    "worker_info": {
      "assignmentId": "test",
      "hitId": "test",
      "workerId": "test",
      "turkSubmitTo": "",
      "previewMode": false,
      "outsideTurk": false,
      "platform": "turk"
    },
    "browser_events": []
  },
  {
    "rt": 8046,
    "url": "src/html/attrition.html",
    "form_name": "attritionForm",
    "form_id": "#attritionForm",
    "experiment_phase": "attrition",
    "trial_type": "render-mustache-template",
    "trial_index": 3,
    "time_elapsed": 88122,
    "instructions_viewed_count": 2,
    "experiment_name": "example_experiment",
    "assignmentId": "test",
    "hitId": "test",
    "workerId": "test",
    "turkSubmitTo": "",
    "previewMode": false,
    "outsideTurk": false,
    "platform": "turk",
    "start_time": "2026-02-28T18:54:16Z",
    "condition": "emotional",
    "end_time": "2026-02-28T18:56:06Z",
    "total_time": 109100,
    "ip_address": "\"127.0.0.1\"",
    "version_date": "2023-10-21",
    "anon_id": "d7l6131sz9o4mrk",
    "debug_mode": false,
    "refresh_count": 3,
    "completion_code": "1894769906-exa-6424662969-mple",
    "seed": 1772304856868,
    "redirect_url": null,
    "worker_info": {
      "assignmentId": "test",
      "hitId": "test",
      "workerId": "test",
      "turkSubmitTo": "",
      "previewMode": false,
      "outsideTurk": false,
      "platform": "turk"
    },
    "browser_events": [
      {
        "event": "fullscreenenter",
        "time": 80159
      }
    ]
  },
  {
    "view_history": [
      {
        "page_index": 0,
        "viewing_time": 1294
      }
    ],
    "rt": 1294,
    "trial_type": "instructions",
    "trial_index": 4,
    "time_elapsed": 89520,
    "experiment_name": "example_experiment",
    "assignmentId": "test",
    "hitId": "test",
    "workerId": "test",
    "turkSubmitTo": "",
    "previewMode": false,
    "outsideTurk": false,
    "platform": "turk",
    "start_time": "2026-02-28T18:54:16Z",
    "condition": "emotional",
    "end_time": "2026-02-28T18:56:06Z",
    "total_time": 109100,
    "ip_address": "\"127.0.0.1\"",
    "version_date": "2023-10-21",
    "anon_id": "d7l6131sz9o4mrk",
    "debug_mode": false,
    "refresh_count": 3,
    "completion_code": "1894769906-exa-6424662969-mple",
    "seed": 1772304856868,
    "redirect_url": null,
    "worker_info": {
      "assignmentId": "test",
      "hitId": "test",
      "workerId": "test",
      "turkSubmitTo": "",
      "previewMode": false,
      "outsideTurk": false,
      "platform": "turk"
    },
    "browser_events": []
  },
  {
    "rt": 2794,
    "response": 10,
    "initial_response": 6,
    "initial_response_time": 899,
    "all_responses": [
      6,
      6,
      6,
      6,
      7,
      7,
      7,
      7,
      7,
      7,
      7,
      7,
      7,
      7,
      7,
      8,
      8,
      8,
      8,
      8,
      8,
      8,
      8,
      8,
      8,
      9,
      9,
      9,
      9,
      9,
      9,
      9,
      10
    ],
    "all_response_times": [
      899,
      1204,
      1220,
      1237,
      1243,
      1260,
      1277,
      1293,
      1327,
      1343,
      1360,
      1377,
      1393,
      1410,
      1426,
      1443,
      1460,
      1477,
      1496,
      1510,
      1527,
      1677,
      1693,
      1700,
      1717,
      1733,
      1750,
      1767,
      1786,
      1801,
      1817,
      1834,
      1852
    ],
    "stimulus": "src/images/jpg/1.jpg",
    "condition": "emotional",
    "experiment_phase": "main",
    "trial_type": "image-slider-response",
    "trial_index": 5,
    "time_elapsed": 92419,
    "experiment_name": "example_experiment",
    "assignmentId": "test",
    "hitId": "test",
    "workerId": "test",
    "turkSubmitTo": "",
    "previewMode": false,
    "outsideTurk": false,
    "platform": "turk",
    "start_time": "2026-02-28T18:54:16Z",
    "end_time": "2026-02-28T18:56:06Z",
    "total_time": 109100,
    "ip_address": "\"127.0.0.1\"",
    "version_date": "2023-10-21",
    "anon_id": "d7l6131sz9o4mrk",
    "debug_mode": false,
    "refresh_count": 3,
    "completion_code": "1894769906-exa-6424662969-mple",
    "seed": 1772304856868,
    "redirect_url": null,
    "worker_info": {
      "assignmentId": "test",
      "hitId": "test",
      "workerId": "test",
      "turkSubmitTo": "",
      "previewMode": false,
      "outsideTurk": false,
      "platform": "turk"
    },
    "browser_events": []
  },
  {
    "rt": 2377,
    "response": 10,
    "initial_response": 8,
    "initial_response_time": 757,
    "all_responses": [
      8,
      10
    ],
    "all_response_times": [
      757,
      1304
    ],
    "stimulus": "src/images/jpg/2.jpg",
    "condition": "emotional",
    "experiment_phase": "main",
    "trial_type": "image-slider-response",
    "trial_index": 6,
    "time_elapsed": 94898,
    "experiment_name": "example_experiment",
    "assignmentId": "test",
    "hitId": "test",
    "workerId": "test",
    "turkSubmitTo": "",
    "previewMode": false,
    "outsideTurk": false,
    "platform": "turk",
    "start_time": "2026-02-28T18:54:16Z",
    "end_time": "2026-02-28T18:56:06Z",
    "total_time": 109100,
    "ip_address": "\"127.0.0.1\"",
    "version_date": "2023-10-21",
    "anon_id": "d7l6131sz9o4mrk",
    "debug_mode": false,
    "refresh_count": 3,
    "completion_code": "1894769906-exa-6424662969-mple",
    "seed": 1772304856868,
    "redirect_url": null,
    "worker_info": {
      "assignmentId": "test",
      "hitId": "test",
      "workerId": "test",
      "turkSubmitTo": "",
      "previewMode": false,
      "outsideTurk": false,
      "platform": "turk"
    },
    "browser_events": []
  },
  {
    "rt": 1199,
    "response": 51,
    "initial_response": 51,
    "initial_response_time": 746,
    "all_responses": [
      51
    ],
    "all_response_times": [
      746
    ],
    "stimulus": "src/images/jpg/3.jpg",
    "condition": "emotional",
    "experiment_phase": "main",
    "trial_type": "image-slider-response",
    "trial_index": 7,
    "time_elapsed": 96198,
    "experiment_name": "example_experiment",
    "assignmentId": "test",
    "hitId": "test",
    "workerId": "test",
    "turkSubmitTo": "",
    "previewMode": false,
    "outsideTurk": false,
    "platform": "turk",
    "start_time": "2026-02-28T18:54:16Z",
    "end_time": "2026-02-28T18:56:06Z",
    "total_time": 109100,
    "ip_address": "\"127.0.0.1\"",
    "version_date": "2023-10-21",
    "anon_id": "d7l6131sz9o4mrk",
    "debug_mode": false,
    "refresh_count": 3,
    "completion_code": "1894769906-exa-6424662969-mple",
    "seed": 1772304856868,
    "redirect_url": null,
    "worker_info": {
      "assignmentId": "test",
      "hitId": "test",
      "workerId": "test",
      "turkSubmitTo": "",
      "previewMode": false,
      "outsideTurk": false,
      "platform": "turk"
    },
    "browser_events": []
  },
  {
    "rt": 1080,
    "response": 50,
    "initial_response": 50,
    "initial_response_time": 661,
    "all_responses": [
      50
    ],
    "all_response_times": [
      661
    ],
    "stimulus": "src/images/jpg/4.jpg",
    "condition": "emotional",
    "experiment_phase": "main",
    "trial_type": "image-slider-response",
    "trial_index": 8,
    "time_elapsed": 97380,
    "experiment_name": "example_experiment",
    "assignmentId": "test",
    "hitId": "test",
    "workerId": "test",
    "turkSubmitTo": "",
    "previewMode": false,
    "outsideTurk": false,
    "platform": "turk",
    "start_time": "2026-02-28T18:54:16Z",
    "end_time": "2026-02-28T18:56:06Z",
    "total_time": 109100,
    "ip_address": "\"127.0.0.1\"",
    "version_date": "2023-10-21",
    "anon_id": "d7l6131sz9o4mrk",
    "debug_mode": false,
    "refresh_count": 3,
    "completion_code": "1894769906-exa-6424662969-mple",
    "seed": 1772304856868,
    "redirect_url": null,
    "worker_info": {
      "assignmentId": "test",
      "hitId": "test",
      "workerId": "test",
      "turkSubmitTo": "",
      "previewMode": false,
      "outsideTurk": false,
      "platform": "turk"
    },
    "browser_events": []
  },
  {
    "rt": 1067,
    "response": 49,
    "initial_response": 49,
    "initial_response_time": 663,
    "all_responses": [
      49,
      49
    ],
    "all_response_times": [
      663,
      666
    ],
    "stimulus": "src/images/jpg/5.jpg",
    "condition": "emotional",
    "experiment_phase": "main",
    "trial_type": "image-slider-response",
    "trial_index": 9,
    "time_elapsed": 98550,
    "experiment_name": "example_experiment",
    "assignmentId": "test",
    "hitId": "test",
    "workerId": "test",
    "turkSubmitTo": "",
    "previewMode": false,
    "outsideTurk": false,
    "platform": "turk",
    "start_time": "2026-02-28T18:54:16Z",
    "end_time": "2026-02-28T18:56:06Z",
    "total_time": 109100,
    "ip_address": "\"127.0.0.1\"",
    "version_date": "2023-10-21",
    "anon_id": "d7l6131sz9o4mrk",
    "debug_mode": false,
    "refresh_count": 3,
    "completion_code": "1894769906-exa-6424662969-mple",
    "seed": 1772304856868,
    "redirect_url": null,
    "worker_info": {
      "assignmentId": "test",
      "hitId": "test",
      "workerId": "test",
      "turkSubmitTo": "",
      "previewMode": false,
      "outsideTurk": false,
      "platform": "turk"
    },
    "browser_events": []
  },
  {
    "rt": 1067,
    "response": 50,
    "initial_response": 50,
    "initial_response_time": 681,
    "all_responses": [
      50
    ],
    "all_response_times": [
      681
    ],
    "stimulus": "src/images/jpg/6.jpg",
    "condition": "emotional",
    "experiment_phase": "main",
    "trial_type": "image-slider-response",
    "trial_index": 10,
    "time_elapsed": 99718,
    "experiment_name": "example_experiment",
    "assignmentId": "test",
    "hitId": "test",
    "workerId": "test",
    "turkSubmitTo": "",
    "previewMode": false,
    "outsideTurk": false,
    "platform": "turk",
    "start_time": "2026-02-28T18:54:16Z",
    "end_time": "2026-02-28T18:56:06Z",
    "total_time": 109100,
    "ip_address": "\"127.0.0.1\"",
    "version_date": "2023-10-21",
    "anon_id": "d7l6131sz9o4mrk",
    "debug_mode": false,
    "refresh_count": 3,
    "completion_code": "1894769906-exa-6424662969-mple",
    "seed": 1772304856868,
    "redirect_url": null,
    "worker_info": {
      "assignmentId": "test",
      "hitId": "test",
      "workerId": "test",
      "turkSubmitTo": "",
      "previewMode": false,
      "outsideTurk": false,
      "platform": "turk"
    },
    "browser_events": []
  },
  {
    "rt": 1090,
    "response": 50,
    "initial_response": 50,
    "initial_response_time": 706,
    "all_responses": [
      50
    ],
    "all_response_times": [
      706
    ],
    "stimulus": "src/images/jpg/7.jpg",
    "condition": "emotional",
    "experiment_phase": "main",
    "trial_type": "image-slider-response",
    "trial_index": 11,
    "time_elapsed": 100910,
    "experiment_name": "example_experiment",
    "assignmentId": "test",
    "hitId": "test",
    "workerId": "test",
    "turkSubmitTo": "",
    "previewMode": false,
    "outsideTurk": false,
    "platform": "turk",
    "start_time": "2026-02-28T18:54:16Z",
    "end_time": "2026-02-28T18:56:06Z",
    "total_time": 109100,
    "ip_address": "\"127.0.0.1\"",
    "version_date": "2023-10-21",
    "anon_id": "d7l6131sz9o4mrk",
    "debug_mode": false,
    "refresh_count": 3,
    "completion_code": "1894769906-exa-6424662969-mple",
    "seed": 1772304856868,
    "redirect_url": null,
    "worker_info": {
      "assignmentId": "test",
      "hitId": "test",
      "workerId": "test",
      "turkSubmitTo": "",
      "previewMode": false,
      "outsideTurk": false,
      "platform": "turk"
    },
    "browser_events": []
  },
  {
    "rt": 1364,
    "response": 50,
    "initial_response": 50,
    "initial_response_time": 649,
    "all_responses": [
      50
    ],
    "all_response_times": [
      649
    ],
    "stimulus": "src/images/jpg/8.jpg",
    "condition": "emotional",
    "experiment_phase": "main",
    "trial_type": "image-slider-response",
    "trial_index": 12,
    "time_elapsed": 102376,
    "experiment_name": "example_experiment",
    "assignmentId": "test",
    "hitId": "test",
    "workerId": "test",
    "turkSubmitTo": "",
    "previewMode": false,
    "outsideTurk": false,
    "platform": "turk",
    "start_time": "2026-02-28T18:54:16Z",
    "end_time": "2026-02-28T18:56:06Z",
    "total_time": 109100,
    "ip_address": "\"127.0.0.1\"",
    "version_date": "2023-10-21",
    "anon_id": "d7l6131sz9o4mrk",
    "debug_mode": false,
    "refresh_count": 3,
    "completion_code": "1894769906-exa-6424662969-mple",
    "seed": 1772304856868,
    "redirect_url": null,
    "worker_info": {
      "assignmentId": "test",
      "hitId": "test",
      "workerId": "test",
      "turkSubmitTo": "",
      "previewMode": false,
      "outsideTurk": false,
      "platform": "turk"
    },
    "browser_events": []
  },
  {
    "rt": 1099,
    "response": 51,
    "initial_response": 51,
    "initial_response_time": 619,
    "all_responses": [
      51
    ],
    "all_response_times": [
      619
    ],
    "stimulus": "src/images/jpg/9.jpg",
    "condition": "emotional",
    "experiment_phase": "main",
    "trial_type": "image-slider-response",
    "trial_index": 13,
    "time_elapsed": 103577,
    "experiment_name": "example_experiment",
    "assignmentId": "test",
    "hitId": "test",
    "workerId": "test",
    "turkSubmitTo": "",
    "previewMode": false,
    "outsideTurk": false,
    "platform": "turk",
    "start_time": "2026-02-28T18:54:16Z",
    "end_time": "2026-02-28T18:56:06Z",
    "total_time": 109100,
    "ip_address": "\"127.0.0.1\"",
    "version_date": "2023-10-21",
    "anon_id": "d7l6131sz9o4mrk",
    "debug_mode": false,
    "refresh_count": 3,
    "completion_code": "1894769906-exa-6424662969-mple",
    "seed": 1772304856868,
    "redirect_url": null,
    "worker_info": {
      "assignmentId": "test",
      "hitId": "test",
      "workerId": "test",
      "turkSubmitTo": "",
      "previewMode": false,
      "outsideTurk": false,
      "platform": "turk"
    },
    "browser_events": []
  },
  {
    "rt": 1116,
    "response": 50,
    "initial_response": 50,
    "initial_response_time": 721,
    "all_responses": [
      50
    ],
    "all_response_times": [
      721
    ],
    "stimulus": "src/images/jpg/10.jpg",
    "condition": "emotional",
    "experiment_phase": "main",
    "trial_type": "image-slider-response",
    "trial_index": 14,
    "time_elapsed": 104794,
    "experiment_name": "example_experiment",
    "assignmentId": "test",
    "hitId": "test",
    "workerId": "test",
    "turkSubmitTo": "",
    "previewMode": false,
    "outsideTurk": false,
    "platform": "turk",
    "start_time": "2026-02-28T18:54:16Z",
    "end_time": "2026-02-28T18:56:06Z",
    "total_time": 109100,
    "ip_address": "\"127.0.0.1\"",
    "version_date": "2023-10-21",
    "anon_id": "d7l6131sz9o4mrk",
    "debug_mode": false,
    "refresh_count": 3,
    "completion_code": "1894769906-exa-6424662969-mple",
    "seed": 1772304856868,
    "redirect_url": null,
    "worker_info": {
      "assignmentId": "test",
      "hitId": "test",
      "workerId": "test",
      "turkSubmitTo": "",
      "previewMode": false,
      "outsideTurk": false,
      "platform": "turk"
    },
    "browser_events": []
  },
  {
    "rt": 3037,
    "url": "src/html/debriefing.html",
    "completion_code": "1894769906-exa-6424662969-mple",
    "experiment_phase": "debriefing",
    "trial_type": "render-mustache-template",
    "trial_index": 15,
    "time_elapsed": 107946,
    "experiment_name": "example_experiment",
    "assignmentId": "test",
    "hitId": "test",
    "workerId": "test",
    "turkSubmitTo": "",
    "previewMode": false,
    "outsideTurk": false,
    "platform": "turk",
    "start_time": "2026-02-28T18:54:16Z",
    "condition": "emotional",
    "end_time": "2026-02-28T18:56:06Z",
    "total_time": 109100,
    "ip_address": "\"127.0.0.1\"",
    "version_date": "2023-10-21",
    "anon_id": "d7l6131sz9o4mrk",
    "debug_mode": false,
    "refresh_count": 3,
    "seed": 1772304856868,
    "redirect_url": null,
    "worker_info": {
      "assignmentId": "test",
      "hitId": "test",
      "workerId": "test",
      "turkSubmitTo": "",
      "previewMode": false,
      "outsideTurk": false,
      "platform": "turk"
    },
    "browser_events": []
  },
  {
    "success": true,
    "trial_type": "fullscreen",
    "trial_index": 16,
    "time_elapsed": 109051,
    "experiment_name": "example_experiment",
    "assignmentId": "test",
    "hitId": "test",
    "workerId": "test",
    "turkSubmitTo": "",
    "previewMode": false,
    "outsideTurk": false,
    "platform": "turk",
    "start_time": "2026-02-28T18:54:16Z",
    "condition": "emotional",
    "end_time": "2026-02-28T18:56:06Z",
    "total_time": 109100,
    "ip_address": "\"127.0.0.1\"",
    "version_date": "2023-10-21",
    "anon_id": "d7l6131sz9o4mrk",
    "debug_mode": false,
    "refresh_count": 3,
    "completion_code": "1894769906-exa-6424662969-mple",
    "seed": 1772304856868,
    "redirect_url": null,
    "worker_info": {
      "assignmentId": "test",
      "hitId": "test",
      "workerId": "test",
      "turkSubmitTo": "",
      "previewMode": false,
      "outsideTurk": false,
      "platform": "turk"
    },
    "browser_events": [
      {
        "event": "fullscreenexit",
        "time": 108875
      }
    ]
  }
]